"Order" "Id" "Blocks_order" "Stimulus" "Response" "Confidence_level" "RT" "Target_frequency" "Type_of_trial" "Category" "Target_frequency2"
"1" 1 1 "a1" 1 0 2 1650 1 2 2 12
"2" 2 1 "a1" 1 1 2 1939 1 1 5 12
"3" 3 1 "a1" 1 1 1 1319 1 1 6 12
"4" 4 1 "a1" 0 0 2 1844 1 4 2 12
"5" 5 1 "a1" 1 1 1 1315 1 1 6 12
"6" 6 1 "a1" 1 1 2 2111 1 1 5 12
"7" 7 1 "a1" 1 0 2 1945 1 2 2 12
"8" 8 1 "a1" 0 0 1 1006 1 4 1 12
"9" 9 1 "a1" 0 0 2 1283 1 4 2 12
"10" 10 1 "a1" 1 0 2 1515 1 2 2 12
"11" 11 1 "a1" 1 1 2 1646 1 1 5 12
"12" 12 1 "a1" 1 1 2 1835 1 1 5 12
"13" 13 1 "a1" 1 1 2 3213 1 1 5 12
"14" 14 1 "a1" 1 0 2 1605 1 2 2 12
"15" 15 1 "a1" 1 0 1 2675 1 2 1 12
"16" 16 1 "a1" 1 0 2 1510 1 2 2 12
"17" 17 1 "a1" 1 0 2 2097 1 2 2 12
"18" 18 1 "a1" 1 1 2 965 1 1 5 12
"19" 19 1 "a1" 1 1 1 937 1 1 6 12
"20" 20 1 "a1" 1 0 2 1846 1 2 2 12
"21" 21 1 "a1" 1 1 2 2341 1 1 5 12
"22" 22 1 "a1" 1 0 2 926 1 2 2 12
"23" 23 1 "a1" 1 1 1 1083 1 1 6 12
"24" 24 1 "a1" 0 0 2 1724 1 4 2 12
"25" 25 1 "a1" 1 1 1 2441 1 1 6 12
"26" 26 1 "a1" 1 1 1 1092 1 1 6 12
"27" 27 1 "a1" 1 1 1 715 1 1 6 12
"28" 28 1 "a1" 1 0 2 1614 1 2 2 12
"29" 29 1 "a1" 1 1 2 1079 1 1 5 12
"30" 30 1 "a1" 0 0 1 928 1 4 1 12
"31" 31 1 "a1" 0 0 2 1293 1 4 2 12
"32" 32 1 "a1" 1 1 1 1208 1 1 6 12
"33" 33 1 "a1" 1 1 1 798 1 1 6 12
"34" 34 1 "a1" 1 1 2 1941 1 1 5 12
"35" 35 1 "a1" 1 0 2 884 1 2 2 12
"36" 36 1 "a1" 1 1 2 1081 1 1 5 12
"37" 37 1 "a1" 1 0 2 1107 1 2 2 12
"38" 38 1 "a1" 1 1 1 1089 1 1 6 12
"39" 39 1 "a1" 1 1 1 743 1 1 6 12
"40" 40 1 "a1" 1 0 2 1258 1 2 2 12
"41" 41 1 "a1" 0 0 2 1458 1 4 2 12
"42" 42 1 "a1" 1 0 2 3779 1 2 2 12
"43" 43 1 "a1" 1 0 2 881 1 2 2 12
"44" 44 1 "a1" 0 0 2 3041 1 4 2 12
"45" 45 1 "a1" 1 1 1 739 1 1 6 12
"46" 46 1 "a1" 1 0 2 1211 1 2 2 12
"47" 47 1 "a1" 1 1 1 843 1 1 6 12
"48" 48 1 "a1" 1 0 2 1152 1 2 2 12
"49" 49 1 "a1" 1 1 1 946 1 1 6 12
"50" 50 1 "a1" 1 0 2 1388 1 2 2 12
"51" 51 1 "a1" 1 1 1 832 1 1 6 12
"52" 52 1 "a1" 1 0 3 2037 1 2 3 12
"53" 53 1 "a1" 0 1 2 1848 1 3 5 12
"54" 54 1 "a1" 1 1 2 952 1 1 5 12
"55" 55 1 "a1" 0 1 2 987 1 3 5 12
"56" 56 1 "a1" 1 1 1 3797 1 1 6 12
"57" 57 1 "a1" 1 0 2 1196 1 2 2 12
"58" 58 1 "a1" 1 1 2 1020 1 1 5 12
"59" 59 1 "a1" 1 1 2 1124 1 1 5 12
"60" 60 1 "a1" 1 1 1 816 1 1 6 12
"61" 61 1 "a1" 1 1 1 792 1 1 6 12
"62" 62 1 "a1" 1 1 1 666 1 1 6 12
"63" 63 1 "a1" 1 1 1 1112 1 1 6 12
"64" 64 1 "a1" 1 1 1 700 1 1 6 12
"65" 65 1 "a1" 1 0 2 1137 1 2 2 12
"66" 66 1 "a1" 1 0 2 1099 1 2 2 12
"67" 67 1 "a1" 1 0 2 1243 1 2 2 12
"68" 68 1 "a1" 1 1 2 1705 1 1 5 12
"69" 69 1 "a1" 1 1 3 2720 1 1 4 12
"70" 70 1 "a1" 1 0 2 2964 1 2 2 12
"71" 71 1 "a1" 1 1 1 988 1 1 6 12
"72" 72 1 "a1" 1 1 1 698 1 1 6 12
"73" 73 1 "a1" 1 1 1 1126 1 1 6 12
"74" 74 1 "a1" 1 0 2 1248 1 2 2 12
"75" 75 1 "a1" 1 1 2 992 1 1 5 12
"76" 76 1 "a1" 1 0 3 2692 1 2 3 12
"77" 77 1 "a1" 0 0 3 982 1 4 3 12
"78" 78 1 "a1" 1 1 1 1118 1 1 6 12
"79" 79 1 "a1" 1 1 1 1073 1 1 6 12
"80" 80 1 "a1" 1 1 1 1190 1 1 6 12
"81" 81 1 "a1" 1 1 3 2103 1 1 4 12
"82" 82 1 "a1" 0 0 3 1644 1 4 3 12
"83" 83 1 "a1" 1 0 3 1097 1 2 3 12
"84" 84 1 "a1" 1 1 1 1803 1 1 6 12
"85" 85 1 "a1" 1 1 2 1419 1 1 5 12
"86" 86 1 "a1" 0 0 2 5063 1 4 2 12
"87" 87 1 "a1" 0 1 1 884 1 3 6 12
"88" 88 1 "a1" 1 1 1 689 1 1 6 12
"89" 89 1 "a1" 1 1 1 1167 1 1 6 12
"90" 90 1 "a1" 1 0 2 890 1 2 2 12
"91" 91 1 "a1" 1 0 2 1035 1 2 2 12
"92" 92 1 "a1" 0 0 2 962 1 4 2 12
"93" 93 1 "a1" 1 1 1 953 1 1 6 12
"94" 94 1 "a1" 1 1 1 822 1 1 6 12
"95" 95 1 "a1" 1 1 1 871 1 1 6 12
"96" 96 1 "a1" 1 1 1 901 1 1 6 12
"97" 97 1 "a1" 1 1 1 788 1 1 6 12
"98" 98 1 "a1" 1 1 1 638 1 1 6 12
"99" 99 1 "a1" 1 1 1 1127 1 1 6 12
"100" 100 1 "a1" 1 0 2 1229 1 2 2 12
"101" 101 1 "a1" 1 1 2 1505 2 1 5 12
"102" 102 1 "a1" 0 0 2 1432 2 4 2 12
"103" 103 1 "a1" 1 0 2 1368 2 2 2 12
"104" 104 1 "a1" 0 0 2 1578 2 4 2 12
"105" 105 1 "a1" 1 1 2 1069 2 1 5 12
"106" 106 1 "a1" 1 1 2 806 2 1 5 12
"107" 107 1 "a1" 1 1 1 1105 2 1 6 12
"108" 108 1 "a1" 0 1 2 1447 2 3 5 12
"109" 109 1 "a1" 1 1 1 894 2 1 6 12
"110" 110 1 "a1" 0 1 2 3186 2 3 5 12
"111" 111 1 "a1" 0 0 2 1998 2 4 2 12
"112" 112 1 "a1" 0 0 2 1686 2 4 2 12
"113" 113 1 "a1" 0 1 1 1677 2 3 6 12
"114" 114 1 "a1" 1 1 1 949 2 1 6 12
"115" 115 1 "a1" 1 1 2 1361 2 1 5 12
"116" 116 1 "a1" 0 1 2 2053 2 3 5 12
"117" 117 1 "a1" 1 0 2 1112 2 2 2 12
"118" 118 1 "a1" 0 0 3 1253 2 4 3 12
"119" 119 1 "a1" 0 0 1 978 2 4 1 12
"120" 120 1 "a1" 1 1 1 1239 2 1 6 12
"121" 121 1 "a1" 1 1 1 1262 2 1 6 12
"122" 122 1 "a1" 0 1 2 1343 2 3 5 12
"123" 123 1 "a1" 1 1 1 890 2 1 6 12
"124" 124 1 "a1" 0 0 3 830 2 4 3 12
"125" 125 1 "a1" 0 1 2 1700 2 3 5 12
"126" 126 1 "a1" 0 1 2 1560 2 3 5 12
"127" 127 1 "a1" 1 1 2 1211 2 1 5 12
"128" 128 1 "a1" 1 1 2 934 2 1 5 12
"129" 129 1 "a1" 1 1 2 1618 2 1 5 12
"130" 130 1 "a1" 1 0 1 1728 2 2 1 12
"131" 131 1 "a1" 1 0 2 1696 2 2 2 12
"132" 132 1 "a1" 0 0 2 1455 2 4 2 12
"133" 133 1 "a1" 1 0 2 850 2 2 2 12
"134" 134 1 "a1" 1 1 2 2794 2 1 5 12
"135" 135 1 "a1" 1 1 1 926 2 1 6 12
"136" 136 1 "a1" 1 1 1 827 2 1 6 12
"137" 137 1 "a1" 1 1 1 924 2 1 6 12
"138" 138 1 "a1" 1 1 1 2569 2 1 6 12
"139" 139 1 "a1" 0 1 1 830 2 3 6 12
"140" 140 1 "a1" 0 1 2 1344 2 3 5 12
"141" 141 1 "a1" 0 0 1 1438 2 4 1 12
"142" 142 1 "a1" 0 0 1 974 2 4 1 12
"143" 143 1 "a1" 1 0 2 1137 2 2 2 12
"144" 144 1 "a1" 1 1 2 1359 2 1 5 12
"145" 145 1 "a1" 1 1 2 1463 2 1 5 12
"146" 146 1 "a1" 1 1 1 927 2 1 6 12
"147" 147 1 "a1" 1 1 3 2390 2 1 4 12
"148" 148 1 "a1" 1 1 2 1381 2 1 5 12
"149" 149 1 "a1" 0 1 3 957 2 3 4 12
"150" 150 1 "a1" 1 1 1 1015 2 1 6 12
"151" 151 1 "a1" 1 1 1 975 2 1 6 12
"152" 152 1 "a1" 0 0 2 1046 2 4 2 12
"153" 153 1 "a1" 1 1 1 803 2 1 6 12
"154" 154 1 "a1" 1 1 2 2933 2 1 5 12
"155" 155 1 "a1" 1 1 2 1162 2 1 5 12
"156" 156 1 "a1" 1 1 1 1394 2 1 6 12
"157" 157 1 "a1" 1 1 2 2069 2 1 5 12
"158" 158 1 "a1" 1 0 2 1124 2 2 2 12
"159" 159 1 "a1" 1 0 2 792 2 2 2 12
"160" 160 1 "a1" 1 1 2 1012 2 1 5 12
"161" 161 1 "a1" 0 0 2 1219 2 4 2 12
"162" 162 1 "a1" 1 0 3 1040 2 2 3 12
"163" 163 1 "a1" 1 1 2 2381 2 1 5 12
"164" 164 1 "a1" 1 0 2 1023 2 2 2 12
"165" 165 1 "a1" 1 1 1 973 2 1 6 12
"166" 166 1 "a1" 1 1 1 907 2 1 6 12
"167" 167 1 "a1" 1 0 2 1018 2 2 2 12
"168" 168 1 "a1" 1 0 2 947 2 2 2 12
"169" 169 1 "a1" 1 0 2 1041 2 2 2 12
"170" 170 1 "a1" 1 1 2 1603 2 1 5 12
"171" 171 1 "a1" 0 0 2 958 2 4 2 12
"172" 172 1 "a1" 1 0 2 829 2 2 2 12
"173" 173 1 "a1" 0 0 2 881 2 4 2 12
"174" 174 1 "a1" 1 1 1 963 2 1 6 12
"175" 175 1 "a1" 1 1 1 1057 2 1 6 12
"176" 176 1 "a1" 1 0 1 768 2 2 1 12
"177" 177 1 "a1" 0 1 2 1135 2 3 5 12
"178" 178 1 "a1" 1 1 1 1029 2 1 6 12
"179" 179 1 "a1" 0 0 1 877 2 4 1 12
"180" 180 1 "a1" 1 1 2 2787 2 1 5 12
"181" 181 1 "a1" 1 1 2 974 2 1 5 12
"182" 182 1 "a1" 0 0 1 1283 2 4 1 12
"183" 183 1 "a1" 0 0 1 1480 2 4 1 12
"184" 184 1 "a1" 0 1 2 1523 2 3 5 12
"185" 185 1 "a1" 1 1 2 1720 2 1 5 12
"186" 186 1 "a1" 0 1 2 1008 2 3 5 12
"187" 187 1 "a1" 1 1 1 907 2 1 6 12
"188" 188 1 "a1" 0 0 2 1206 2 4 2 12
"189" 189 1 "a1" 0 0 3 1638 2 4 3 12
"190" 190 1 "a1" 1 0 2 1075 2 2 2 12
"191" 191 1 "a1" 0 0 3 1447 2 4 3 12
"192" 192 1 "a1" 0 1 2 1580 2 3 5 12
"193" 193 1 "a1" 1 1 2 1247 2 1 5 12
"194" 194 1 "a1" 1 0 2 1400 2 2 2 12
"195" 195 1 "a1" 1 1 1 1634 2 1 6 12
"196" 196 1 "a1" 0 1 2 1168 2 3 5 12
"197" 197 1 "a1" 1 1 2 1602 2 1 5 12
"198" 198 1 "a1" 1 1 1 883 2 1 6 12
"199" 199 1 "a1" 1 1 1 2482 2 1 6 12
"200" 200 1 "a1" 1 1 1 784 2 1 6 12
"201" 201 1 "a1" 0 0 2 1587 3 4 2 3
"202" 202 1 "a1" 1 1 2 1191 3 1 5 3
"203" 203 1 "a1" 1 1 2 1001 3 1 5 3
"204" 204 1 "a1" 1 0 2 2196 3 2 2 3
"205" 205 1 "a1" 0 0 2 1159 3 4 2 3
"206" 206 1 "a1" 1 1 1 763 3 1 6 3
"207" 207 1 "a1" 0 0 2 869 3 4 2 3
"208" 208 1 "a1" 1 1 2 2045 3 1 5 3
"209" 209 1 "a1" 0 0 2 944 3 4 2 3
"210" 210 1 "a1" 1 1 1 813 3 1 6 3
"211" 211 1 "a1" 0 1 1 974 3 3 6 3
"212" 212 1 "a1" 0 0 2 906 3 4 2 3
"213" 213 1 "a1" 1 1 2 1297 3 1 5 3
"214" 214 1 "a1" 0 0 2 1567 3 4 2 3
"215" 215 1 "a1" 0 0 2 1866 3 4 2 3
"216" 216 1 "a1" 1 1 1 898 3 1 6 3
"217" 217 1 "a1" 1 0 2 1934 3 2 2 3
"218" 218 1 "a1" 0 0 2 884 3 4 2 3
"219" 219 1 "a1" 1 1 1 788 3 1 6 3
"220" 220 1 "a1" 1 1 1 787 3 1 6 3
"221" 221 1 "a1" 1 0 2 1036 3 2 2 3
"222" 222 1 "a1" 1 1 1 1173 3 1 6 3
"223" 223 1 "a1" 1 1 1 649 3 1 6 3
"224" 224 1 "a1" 1 1 1 1223 3 1 6 3
"225" 225 1 "a1" 1 0 2 1193 3 2 2 3
"226" 226 1 "a1" 1 0 2 1684 3 2 2 3
"227" 227 1 "a1" 1 0 2 1005 3 2 2 3
"228" 228 1 "a1" 0 0 2 743 3 4 2 3
"229" 229 1 "a1" 1 1 1 845 3 1 6 3
"230" 230 1 "a1" 1 1 1 629 3 1 6 3
"231" 231 1 "a1" 0 1 1 774 3 3 6 3
"232" 232 1 "a1" 1 1 2 1862 3 1 5 3
"233" 233 1 "a1" 0 0 2 1133 3 4 2 3
"234" 234 1 "a1" 0 0 1 729 3 4 1 3
"235" 235 1 "a1" 1 1 1 917 3 1 6 3
"236" 236 1 "a1" 1 1 1 714 3 1 6 3
"237" 237 1 "a1" 1 1 2 1448 3 1 5 3
"238" 238 1 "a1" 0 0 2 864 3 4 2 3
"239" 239 1 "a1" 1 1 1 885 3 1 6 3
"240" 240 1 "a1" 1 1 2 1411 3 1 5 3
"241" 241 1 "a1" 0 0 1 830 3 4 1 3
"242" 242 1 "a1" 0 0 1 886 3 4 1 3
"243" 243 1 "a1" 1 1 1 786 3 1 6 3
"244" 244 1 "a1" 0 1 1 1523 3 3 6 3
"245" 245 1 "a1" 1 1 1 863 3 1 6 3
"246" 246 1 "a1" 0 0 1 1304 3 4 1 3
"247" 247 1 "a1" 0 0 2 1461 3 4 2 3
"248" 248 1 "a1" 0 0 2 1124 3 4 2 3
"249" 249 1 "a1" 1 1 2 1273 3 1 5 3
"250" 250 1 "a1" 0 1 1 895 3 3 6 3
"251" 251 1 "a1" 1 0 2 837 3 2 2 3
"252" 252 1 "a1" 1 1 1 798 3 1 6 3
"253" 253 1 "a1" 0 0 2 1384 3 4 2 3
"254" 254 1 "a1" 0 0 2 658 3 4 2 3
"255" 255 1 "a1" 0 0 2 787 3 4 2 3
"256" 256 1 "a1" 0 0 2 676 3 4 2 3
"257" 257 1 "a1" 1 0 2 619 3 2 2 3
"258" 258 1 "a1" 1 0 2 869 3 2 2 3
"259" 259 1 "a1" 0 0 2 854 3 4 2 3
"260" 260 1 "a1" 0 0 1 1289 3 4 1 3
"261" 261 1 "a1" 1 1 2 1274 3 1 5 3
"262" 262 1 "a1" 0 0 2 866 3 4 2 3
"263" 263 1 "a1" 0 0 2 956 3 4 2 3
"264" 264 1 "a1" 1 0 3 740 3 2 3 3
"265" 265 1 "a1" 1 0 2 2226 3 2 2 3
"266" 266 1 "a1" 0 1 2 1083 3 3 5 3
"267" 267 1 "a1" 0 0 2 857 3 4 2 3
"268" 268 1 "a1" 0 0 2 739 3 4 2 3
"269" 269 1 "a1" 0 0 1 801 3 4 1 3
"270" 270 1 "a1" 1 1 2 1551 3 1 5 3
"271" 271 1 "a1" 0 0 2 717 3 4 2 3
"272" 272 1 "a1" 0 1 1 1094 3 3 6 3
"273" 273 1 "a1" 1 1 1 1052 3 1 6 3
"274" 274 1 "a1" 0 1 1 1029 3 3 6 3
"275" 275 1 "a1" 0 0 2 840 3 4 2 3
"276" 276 1 "a1" 1 0 2 1098 3 2 2 3
"277" 277 1 "a1" 1 1 2 3096 3 1 5 3
"278" 278 1 "a1" 1 1 2 1197 3 1 5 3
"279" 279 1 "a1" 0 0 2 1588 3 4 2 3
"280" 280 1 "a1" 1 0 2 1664 3 2 2 3
"281" 281 1 "a1" 0 1 1 850 3 3 6 3
"282" 282 1 "a1" 0 0 2 863 3 4 2 3
"283" 283 1 "a1" 1 0 2 1088 3 2 2 3
"284" 284 1 "a1" 1 0 2 648 3 2 2 3
"285" 285 1 "a1" 0 1 2 1704 3 3 5 3
"286" 286 1 "a1" 0 1 1 829 3 3 6 3
"287" 287 1 "a1" 1 0 2 1867 3 2 2 3
"288" 288 1 "a1" 0 0 2 769 3 4 2 3
"289" 289 1 "a1" 0 1 2 1877 3 3 5 3
"290" 290 1 "a1" 1 0 2 801 3 2 2 3
"291" 291 1 "a1" 1 0 2 972 3 2 2 3
"292" 292 1 "a1" 0 0 2 832 3 4 2 3
"293" 293 1 "a1" 0 0 2 954 3 4 2 3
"294" 294 1 "a1" 1 0 2 820 3 2 2 3
"295" 295 1 "a1" 1 1 2 939 3 1 5 3
"296" 296 1 "a1" 0 1 3 966 3 3 4 3
"297" 297 1 "a1" 1 0 3 763 3 2 3 3
"298" 298 1 "a1" 0 0 3 1194 3 4 3 3
"299" 299 1 "a1" 0 1 2 1240 3 3 5 3
"300" 300 1 "a1" 0 1 2 1837 3 3 5 3
"301" 301 1 "a1" 1 1 1 1054 4 1 6 45
"302" 302 1 "a1" 0 1 2 1466 4 3 5 45
"303" 303 1 "a1" 1 1 2 2337 4 1 5 45
"304" 304 1 "a1" 0 0 2 759 4 4 2 45
"305" 305 1 "a1" 0 0 2 795 4 4 2 45
"306" 306 1 "a1" 1 1 2 1330 4 1 5 45
"307" 307 1 "a1" 0 0 2 720 4 4 2 45
"308" 308 1 "a1" 1 1 2 1366 4 1 5 45
"309" 309 1 "a1" 1 1 2 1137 4 1 5 45
"310" 310 1 "a1" 1 0 2 886 4 2 2 45
"311" 311 1 "a1" 0 1 1 750 4 3 6 45
"312" 312 1 "a1" 0 0 2 822 4 4 2 45
"313" 313 1 "a1" 0 0 2 928 4 4 2 45
"314" 314 1 "a1" 1 1 2 1206 4 1 5 45
"315" 315 1 "a1" 1 0 2 894 4 2 2 45
"316" 316 1 "a1" 1 1 1 959 4 1 6 45
"317" 317 1 "a1" 0 0 2 683 4 4 2 45
"318" 318 1 "a1" 0 0 2 1085 4 4 2 45
"319" 319 1 "a1" 0 0 1 1479 4 4 1 45
"320" 320 1 "a1" 0 0 2 1467 4 4 2 45
"321" 321 1 "a1" 0 1 2 1728 4 3 5 45
"322" 322 1 "a1" 0 0 2 670 4 4 2 45
"323" 323 1 "a1" 0 0 2 744 4 4 2 45
"324" 324 1 "a1" 0 0 3 743 4 4 3 45
"325" 325 1 "a1" 1 0 2 843 4 2 2 45
"326" 326 1 "a1" 1 1 2 1604 4 1 5 45
"327" 327 1 "a1" 0 1 2 1771 4 3 5 45
"328" 328 1 "a1" 0 0 2 792 4 4 2 45
"329" 329 1 "a1" 0 0 2 2409 4 4 2 45
"330" 330 1 "a1" 0 1 1 1365 4 3 6 45
"331" 331 1 "a1" 0 0 2 942 4 4 2 45
"332" 332 1 "a1" 0 0 1 1411 4 4 1 45
"333" 333 1 "a1" 0 1 2 1688 4 3 5 45
"334" 334 1 "a1" 0 1 2 949 4 3 5 45
"335" 335 1 "a1" 0 0 1 705 4 4 1 45
"336" 336 1 "a1" 0 1 2 1158 4 3 5 45
"337" 337 1 "a1" 0 0 2 613 4 4 2 45
"338" 338 1 "a1" 0 0 3 1550 4 4 3 45
"339" 339 1 "a1" 0 0 2 849 4 4 2 45
"340" 340 1 "a1" 0 0 2 1107 4 4 2 45
"341" 341 1 "a1" 0 0 2 2656 4 4 2 45
"342" 342 1 "a1" 0 1 2 1786 4 3 5 45
"343" 343 1 "a1" 0 0 2 1269 4 4 2 45
"344" 344 1 "a1" 0 0 2 1666 4 4 2 45
"345" 345 1 "a1" 0 0 2 697 4 4 2 45
"346" 346 1 "a1" 0 0 1 1407 4 4 1 45
"347" 347 1 "a1" 0 0 3 2312 4 4 3 45
"348" 348 1 "a1" 1 0 2 670 4 2 2 45
"349" 349 1 "a1" 1 0 2 1182 4 2 2 45
"350" 350 1 "a1" 0 0 2 1348 4 4 2 45
"351" 351 1 "a1" 0 0 2 699 4 4 2 45
"352" 352 1 "a1" 0 0 2 716 4 4 2 45
"353" 353 1 "a1" 0 0 2 779 4 4 2 45
"354" 354 1 "a1" 1 1 2 960 4 1 5 45
"355" 355 1 "a1" 0 1 2 2212 4 3 5 45
"356" 356 1 "a1" 1 0 2 729 4 2 2 45
"357" 357 1 "a1" 1 1 2 938 4 1 5 45
"358" 358 1 "a1" 0 0 2 1274 4 4 2 45
"359" 359 1 "a1" 1 0 2 1185 4 2 2 45
"360" 360 1 "a1" 1 1 2 1014 4 1 5 45
"361" 361 1 "a1" 0 1 2 905 4 3 5 45
"362" 362 1 "a1" 0 0 2 737 4 4 2 45
"363" 363 1 "a1" 1 0 2 872 4 2 2 45
"364" 364 1 "a1" 0 1 2 1386 4 3 5 45
"365" 365 1 "a1" 1 0 2 792 4 2 2 45
"366" 366 1 "a1" 0 1 2 1365 4 3 5 45
"367" 367 1 "a1" 1 0 2 2000 4 2 2 45
"368" 368 1 "a1" 0 0 2 1164 4 4 2 45
"369" 369 1 "a1" 1 1 3 2058 4 1 4 45
"370" 370 1 "a1" 1 1 1 947 4 1 6 45
"371" 371 1 "a1" 0 0 2 1080 4 4 2 45
"372" 372 1 "a1" 1 1 1 865 4 1 6 45
"373" 373 1 "a1" 0 0 1 913 4 4 1 45
"374" 374 1 "a1" 0 1 2 1270 4 3 5 45
"375" 375 1 "a1" 0 0 2 1071 4 4 2 45
"376" 376 1 "a1" 1 1 1 822 4 1 6 45
"377" 377 1 "a1" 0 1 1 863 4 3 6 45
"378" 378 1 "a1" 1 1 1 943 4 1 6 45
"379" 379 1 "a1" 0 0 1 798 4 4 1 45
"380" 380 1 "a1" 0 0 2 892 4 4 2 45
"381" 381 1 "a1" 0 0 2 1036 4 4 2 45
"382" 382 1 "a1" 0 0 1 792 4 4 1 45
"383" 383 1 "a1" 1 1 2 1774 4 1 5 45
"384" 384 1 "a1" 0 1 2 1146 4 3 5 45
"385" 385 1 "a1" 0 0 1 1037 4 4 1 45
"386" 386 1 "a1" 0 1 2 1328 4 3 5 45
"387" 387 1 "a1" 0 0 2 870 4 4 2 45
"388" 388 1 "a1" 0 0 2 988 4 4 2 45
"389" 389 1 "a1" 1 0 2 1448 4 2 2 45
"390" 390 1 "a1" 1 1 1 927 4 1 6 45
"391" 391 1 "a1" 1 1 1 917 4 1 6 45
"392" 392 1 "a1" 1 1 1 682 4 1 6 45
"393" 393 1 "a1" 1 0 2 929 4 2 2 45
"394" 394 1 "a1" 1 0 2 750 4 2 2 45
"395" 395 1 "a1" 0 1 2 1449 4 3 5 45
"396" 396 1 "a1" 0 1 2 1655 4 3 5 45
"397" 397 1 "a1" 1 1 2 1054 4 1 5 45
"398" 398 1 "a1" 0 0 2 1280 4 4 2 45
"399" 399 1 "a1" 1 0 2 800 4 2 2 45
"400" 400 1 "a1" 0 1 2 877 4 3 5 45
"401" 401 1 "a1" 0 1 2 1591 5 3 5 45
"402" 402 1 "a1" 0 1 2 1065 5 3 5 45
"403" 403 1 "a1" 0 0 2 1034 5 4 2 45
"404" 404 1 "a1" 0 0 2 781 5 4 2 45
"405" 405 1 "a1" 0 1 1 1163 5 3 6 45
"406" 406 1 "a1" 0 0 1 1088 5 4 1 45
"407" 407 1 "a1" 0 0 2 1231 5 4 2 45
"408" 408 1 "a1" 0 0 2 906 5 4 2 45
"409" 409 1 "a1" 0 0 2 1379 5 4 2 45
"410" 410 1 "a1" 0 0 2 1110 5 4 2 45
"411" 411 1 "a1" 0 0 1 860 5 4 1 45
"412" 412 1 "a1" 0 0 1 4486 5 4 1 45
"413" 413 1 "a1" 0 0 2 2374 5 4 2 45
"414" 414 1 "a1" 0 0 1 994 5 4 1 45
"415" 415 1 "a1" 0 1 2 1238 5 3 5 45
"416" 416 1 "a1" 0 0 2 1004 5 4 2 45
"417" 417 1 "a1" 1 0 2 898 5 2 2 45
"418" 418 1 "a1" 0 0 2 842 5 4 2 45
"419" 419 1 "a1" 0 0 1 1129 5 4 1 45
"420" 420 1 "a1" 0 0 2 1635 5 4 2 45
"421" 421 1 "a1" 0 0 2 750 5 4 2 45
"422" 422 1 "a1" 0 0 2 771 5 4 2 45
"423" 423 1 "a1" 0 0 2 871 5 4 2 45
"424" 424 1 "a1" 0 0 2 1517 5 4 2 45
"425" 425 1 "a1" 0 1 2 1250 5 3 5 45
"426" 426 1 "a1" 0 0 2 666 5 4 2 45
"427" 427 1 "a1" 0 0 2 741 5 4 2 45
"428" 428 1 "a1" 0 0 2 734 5 4 2 45
"429" 429 1 "a1" 0 1 2 1238 5 3 5 45
"430" 430 1 "a1" 0 0 2 735 5 4 2 45
"431" 431 1 "a1" 0 0 2 656 5 4 2 45
"432" 432 1 "a1" 0 0 2 932 5 4 2 45
"433" 433 1 "a1" 1 1 1 1235 5 1 6 45
"434" 434 1 "a1" 0 0 2 1698 5 4 2 45
"435" 435 1 "a1" 0 0 2 875 5 4 2 45
"436" 436 1 "a1" 0 0 2 1037 5 4 2 45
"437" 437 1 "a1" 1 0 2 713 5 2 2 45
"438" 438 1 "a1" 0 0 2 729 5 4 2 45
"439" 439 1 "a1" 0 0 2 714 5 4 2 45
"440" 440 1 "a1" 0 0 1 1169 5 4 1 45
"441" 441 1 "a1" 0 0 1 648 5 4 1 45
"442" 442 1 "a1" 1 1 2 1108 5 1 5 45
"443" 443 1 "a1" 0 0 2 833 5 4 2 45
"444" 444 1 "a1" 0 0 2 641 5 4 2 45
"445" 445 1 "a1" 0 0 2 3556 5 4 2 45
"446" 446 1 "a1" 0 0 2 1720 5 4 2 45
"447" 447 1 "a1" 0 0 2 657 5 4 2 45
"448" 448 1 "a1" 0 0 2 687 5 4 2 45
"449" 449 1 "a1" 0 1 2 826 5 3 5 45
"450" 450 1 "a1" 0 0 1 1274 5 4 1 45
"451" 451 1 "a1" 0 0 1 963 5 4 1 45
"452" 452 1 "a1" 0 1 2 1239 5 3 5 45
"453" 453 1 "a1" 1 1 1 696 5 1 6 45
"454" 454 1 "a1" 1 1 1 759 5 1 6 45
"455" 455 1 "a1" 0 0 2 916 5 4 2 45
"456" 456 1 "a1" 0 0 2 716 5 4 2 45
"457" 457 1 "a1" 1 0 2 636 5 2 2 45
"458" 458 1 "a1" 0 0 2 1375 5 4 2 45
"459" 459 1 "a1" 0 0 2 884 5 4 2 45
"460" 460 1 "a1" 1 1 2 1038 5 1 5 45
"461" 461 1 "a1" 0 0 2 882 5 4 2 45
"462" 462 1 "a1" 0 0 2 997 5 4 2 45
"463" 463 1 "a1" 0 0 1 2180 5 4 1 45
"464" 464 1 "a1" 1 0 2 1358 5 2 2 45
"465" 465 1 "a1" 0 1 2 1253 5 3 5 45
"466" 466 1 "a1" 0 0 2 806 5 4 2 45
"467" 467 1 "a1" 0 1 1 985 5 3 6 45
"468" 468 1 "a1" 0 0 2 757 5 4 2 45
"469" 469 1 "a1" 0 0 1 1396 5 4 1 45
"470" 470 1 "a1" 0 1 2 1129 5 3 5 45
"471" 471 1 "a1" 0 0 1 663 5 4 1 45
"472" 472 1 "a1" 0 0 1 1147 5 4 1 45
"473" 473 1 "a1" 1 1 1 942 5 1 6 45
"474" 474 1 "a1" 0 0 2 1005 5 4 2 45
"475" 475 1 "a1" 0 0 1 1121 5 4 1 45
"476" 476 1 "a1" 0 0 2 808 5 4 2 45
"477" 477 1 "a1" 0 0 2 843 5 4 2 45
"478" 478 1 "a1" 0 0 2 1257 5 4 2 45
"479" 479 1 "a1" 0 0 2 884 5 4 2 45
"480" 480 1 "a1" 0 0 1 1214 5 4 1 45
"481" 481 1 "a1" 1 1 2 1292 5 1 5 45
"482" 482 1 "a1" 0 0 2 963 5 4 2 45
"483" 483 1 "a1" 0 0 2 881 5 4 2 45
"484" 484 1 "a1" 0 0 2 741 5 4 2 45
"485" 485 1 "a1" 0 1 2 1470 5 3 5 45
"486" 486 1 "a1" 0 0 2 904 5 4 2 45
"487" 487 1 "a1" 0 0 2 762 5 4 2 45
"488" 488 1 "a1" 1 1 2 834 5 1 5 45
"489" 489 1 "a1" 1 1 1 740 5 1 6 45
"490" 490 1 "a1" 1 0 2 803 5 2 2 45
"491" 491 1 "a1" 0 0 2 718 5 4 2 45
"492" 492 1 "a1" 0 0 2 672 5 4 2 45
"493" 493 1 "a1" 0 1 2 998 5 3 5 45
"494" 494 1 "a1" 0 0 2 1044 5 4 2 45
"495" 495 1 "a1" 0 0 2 823 5 4 2 45
"496" 496 1 "a1" 0 0 2 933 5 4 2 45
"497" 497 1 "a1" 1 1 1 903 5 1 6 45
"498" 498 1 "a1" 0 0 3 992 5 4 3 45
"499" 499 1 "a1" 0 1 2 1060 5 3 5 45
"500" 500 1 "a1" 0 1 2 1021 5 3 5 45
"501" 501 2 "a2" 1 1 1 95698 1 1 6 12
"502" 502 2 "a2" 1 1 2 3831 1 1 5 12
"503" 503 2 "a2" 1 1 1 1433 1 1 6 12
"504" 504 2 "a2" 1 1 2 3406 1 1 5 12
"505" 505 2 "a2" 0 0 3 1852 1 4 3 12
"506" 506 2 "a2" 0 0 2 1777 1 4 2 12
"507" 507 2 "a2" 1 1 1 1297 1 1 6 12
"508" 508 2 "a2" 1 1 1 974 1 1 6 12
"509" 509 2 "a2" 1 1 1 1268 1 1 6 12
"510" 510 2 "a2" 0 1 2 4098 1 3 5 12
"511" 511 2 "a2" 0 1 2 3496 1 3 5 12
"512" 512 2 "a2" 1 1 1 1663 1 1 6 12
"513" 513 2 "a2" 1 1 1 888 1 1 6 12
"514" 514 2 "a2" 1 1 1 677 1 1 6 12
"515" 515 2 "a2" 0 0 1 5444 1 4 1 12
"516" 516 2 "a2" 1 1 1 1323 1 1 6 12
"517" 517 2 "a2" 1 1 2 3730 1 1 5 12
"518" 518 2 "a2" 0 0 2 2031 1 4 2 12
"519" 519 2 "a2" 1 0 3 2296 1 2 3 12
"520" 520 2 "a2" 1 1 1 1462 1 1 6 12
"521" 521 2 "a2" 1 1 1 796 1 1 6 12
"522" 522 2 "a2" 0 0 1 2966 1 4 1 12
"523" 523 2 "a2" 1 1 1 1500 1 1 6 12
"524" 524 2 "a2" 1 1 1 907 1 1 6 12
"525" 525 2 "a2" 1 1 1 816 1 1 6 12
"526" 526 2 "a2" 1 1 1 1887 1 1 6 12
"527" 527 2 "a2" 1 1 1 734 1 1 6 12
"528" 528 2 "a2" 1 1 1 926 1 1 6 12
"529" 529 2 "a2" 1 1 1 1675 1 1 6 12
"530" 530 2 "a2" 1 1 1 698 1 1 6 12
"531" 531 2 "a2" 1 1 1 670 1 1 6 12
"532" 532 2 "a2" 1 1 1 808 1 1 6 12
"533" 533 2 "a2" 0 1 2 658 1 3 5 12
"534" 534 2 "a2" 1 1 1 2571 1 1 6 12
"535" 535 2 "a2" 1 1 1 709 1 1 6 12
"536" 536 2 "a2" 1 1 1 633 1 1 6 12
"537" 537 2 "a2" 1 1 1 690 1 1 6 12
"538" 538 2 "a2" 1 1 1 848 1 1 6 12
"539" 539 2 "a2" 1 1 1 801 1 1 6 12
"540" 540 2 "a2" 1 1 1 647 1 1 6 12
"541" 541 2 "a2" 1 1 1 1377 1 1 6 12
"542" 542 2 "a2" 1 0 2 3592 1 2 2 12
"543" 543 2 "a2" 1 1 1 1770 1 1 6 12
"544" 544 2 "a2" 0 0 2 4143 1 4 2 12
"545" 545 2 "a2" 1 1 1 1674 1 1 6 12
"546" 546 2 "a2" 1 1 1 1718 1 1 6 12
"547" 547 2 "a2" 1 1 2 3896 1 1 5 12
"548" 548 2 "a2" 1 1 1 1299 1 1 6 12
"549" 549 2 "a2" 1 0 2 2845 1 2 2 12
"550" 550 2 "a2" 1 1 1 1371 1 1 6 12
"551" 551 2 "a2" 1 1 1 909 1 1 6 12
"552" 552 2 "a2" 0 0 2 4181 1 4 2 12
"553" 553 2 "a2" 1 1 1 1645 1 1 6 12
"554" 554 2 "a2" 1 1 1 905 1 1 6 12
"555" 555 2 "a2" 1 1 1 599 1 1 6 12
"556" 556 2 "a2" 1 1 1 745 1 1 6 12
"557" 557 2 "a2" 1 1 1 644 1 1 6 12
"558" 558 2 "a2" 1 1 2 2506 1 1 5 12
"559" 559 2 "a2" 0 0 2 3032 1 4 2 12
"560" 560 2 "a2" 1 1 1 1179 1 1 6 12
"561" 561 2 "a2" 0 0 1 2217 1 4 1 12
"562" 562 2 "a2" 1 1 1 1130 1 1 6 12
"563" 563 2 "a2" 1 0 2 2760 1 2 2 12
"564" 564 2 "a2" 1 1 1 2653 1 1 6 12
"565" 565 2 "a2" 1 1 1 780 1 1 6 12
"566" 566 2 "a2" 1 1 1 720 1 1 6 12
"567" 567 2 "a2" 1 1 1 839 1 1 6 12
"568" 568 2 "a2" 1 1 1 681 1 1 6 12
"569" 569 2 "a2" 1 1 1 699 1 1 6 12
"570" 570 2 "a2" 1 1 1 781 1 1 6 12
"571" 571 2 "a2" 1 1 1 1160 1 1 6 12
"572" 572 2 "a2" 1 1 1 806 1 1 6 12
"573" 573 2 "a2" 1 1 1 1363 1 1 6 12
"574" 574 2 "a2" 1 1 1 920 1 1 6 12
"575" 575 2 "a2" 1 1 1 590 1 1 6 12
"576" 576 2 "a2" 0 0 1 1510 1 4 1 12
"577" 577 2 "a2" 1 1 1 939 1 1 6 12
"578" 578 2 "a2" 1 1 1 714 1 1 6 12
"579" 579 2 "a2" 1 1 1 726 1 1 6 12
"580" 580 2 "a2" 1 0 1 1611 1 2 1 12
"581" 581 2 "a2" 1 1 1 799 1 1 6 12
"582" 582 2 "a2" 1 1 1 835 1 1 6 12
"583" 583 2 "a2" 1 1 2 1817 1 1 5 12
"584" 584 2 "a2" 1 1 1 912 1 1 6 12
"585" 585 2 "a2" 1 1 1 1410 1 1 6 12
"586" 586 2 "a2" 1 1 1 649 1 1 6 12
"587" 587 2 "a2" 1 0 1 2559 1 2 1 12
"588" 588 2 "a2" 0 0 2 3125 1 4 2 12
"589" 589 2 "a2" 1 1 1 1314 1 1 6 12
"590" 590 2 "a2" 1 1 2 2705 1 1 5 12
"591" 591 2 "a2" 1 1 1 1108 1 1 6 12
"592" 592 2 "a2" 1 1 1 699 1 1 6 12
"593" 593 2 "a2" 0 1 2 750 1 3 5 12
"594" 594 2 "a2" 1 1 1 1561 1 1 6 12
"595" 595 2 "a2" 1 1 1 605 1 1 6 12
"596" 596 2 "a2" 1 1 1 722 1 1 6 12
"597" 597 2 "a2" 1 1 1 645 1 1 6 12
"598" 598 2 "a2" 1 1 1 820 1 1 6 12
"599" 599 2 "a2" 1 1 1 660 1 1 6 12
"600" 600 2 "a2" 1 1 1 855 1 1 6 12
"601" 601 2 "a2" 1 1 1 1546 2 1 6 12
"602" 602 2 "a2" 1 1 1 716 2 1 6 12
"603" 603 2 "a2" 1 1 1 863 2 1 6 12
"604" 604 2 "a2" 0 0 2 3716 2 4 2 12
"605" 605 2 "a2" 1 1 1 1158 2 1 6 12
"606" 606 2 "a2" 1 0 1 3392 2 2 1 12
"607" 607 2 "a2" 1 1 2 2417 2 1 5 12
"608" 608 2 "a2" 1 1 1 683 2 1 6 12
"609" 609 2 "a2" 0 0 2 2274 2 4 2 12
"610" 610 2 "a2" 1 1 1 657 2 1 6 12
"611" 611 2 "a2" 1 1 1 626 2 1 6 12
"612" 612 2 "a2" 1 1 1 746 2 1 6 12
"613" 613 2 "a2" 1 1 1 681 2 1 6 12
"614" 614 2 "a2" 0 0 2 2768 2 4 2 12
"615" 615 2 "a2" 1 1 1 2672 2 1 6 12
"616" 616 2 "a2" 0 0 1 1956 2 4 1 12
"617" 617 2 "a2" 0 0 1 1793 2 4 1 12
"618" 618 2 "a2" 1 1 1 845 2 1 6 12
"619" 619 2 "a2" 0 0 2 2375 2 4 2 12
"620" 620 2 "a2" 1 1 1 1411 2 1 6 12
"621" 621 2 "a2" 0 1 2 695 2 3 5 12
"622" 622 2 "a2" 1 1 1 843 2 1 6 12
"623" 623 2 "a2" 1 1 1 929 2 1 6 12
"624" 624 2 "a2" 1 1 2 1024 2 1 5 12
"625" 625 2 "a2" 1 1 1 1367 2 1 6 12
"626" 626 2 "a2" 1 1 1 1690 2 1 6 12
"627" 627 2 "a2" 1 1 1 1092 2 1 6 12
"628" 628 2 "a2" 1 1 2 2405 2 1 5 12
"629" 629 2 "a2" 1 1 2 1997 2 1 5 12
"630" 630 2 "a2" 1 1 2 3007 2 1 5 12
"631" 631 2 "a2" 1 0 1 4330 2 2 1 12
"632" 632 2 "a2" 1 1 1 1376 2 1 6 12
"633" 633 2 "a2" 0 0 2 2819 2 4 2 12
"634" 634 2 "a2" 1 1 1 925 2 1 6 12
"635" 635 2 "a2" 1 1 1 738 2 1 6 12
"636" 636 2 "a2" 1 1 1 921 2 1 6 12
"637" 637 2 "a2" 1 1 1 869 2 1 6 12
"638" 638 2 "a2" 1 1 1 1006 2 1 6 12
"639" 639 2 "a2" 0 0 1 1870 2 4 1 12
"640" 640 2 "a2" 0 0 1 1428 2 4 1 12
"641" 641 2 "a2" 0 0 2 3087 2 4 2 12
"642" 642 2 "a2" 1 0 2 3589 2 2 2 12
"643" 643 2 "a2" 1 1 1 1693 2 1 6 12
"644" 644 2 "a2" 1 1 1 2013 2 1 6 12
"645" 645 2 "a2" 0 0 2 2398 2 4 2 12
"646" 646 2 "a2" 0 0 1 2404 2 4 1 12
"647" 647 2 "a2" 1 1 1 995 2 1 6 12
"648" 648 2 "a2" 1 1 1 700 2 1 6 12
"649" 649 2 "a2" 1 1 1 1231 2 1 6 12
"650" 650 2 "a2" 1 1 1 642 2 1 6 12
"651" 651 2 "a2" 1 1 1 951 2 1 6 12
"652" 652 2 "a2" 1 1 1 662 2 1 6 12
"653" 653 2 "a2" 0 0 1 2137 2 4 1 12
"654" 654 2 "a2" 1 0 2 1433 2 2 2 12
"655" 655 2 "a2" 1 1 2 5489 2 1 5 12
"656" 656 2 "a2" 1 1 1 1295 2 1 6 12
"657" 657 2 "a2" 0 0 1 3678 2 4 1 12
"658" 658 2 "a2" 1 1 2 2759 2 1 5 12
"659" 659 2 "a2" 0 1 1 927 2 3 6 12
"660" 660 2 "a2" 0 1 2 931 2 3 5 12
"661" 661 2 "a2" 1 1 1 2732 2 1 6 12
"662" 662 2 "a2" 0 1 1 1257 2 3 6 12
"663" 663 2 "a2" 0 1 2 888 2 3 5 12
"664" 664 2 "a2" 0 0 2 1025 2 4 2 12
"665" 665 2 "a2" 1 1 1 1205 2 1 6 12
"666" 666 2 "a2" 1 1 1 1169 2 1 6 12
"667" 667 2 "a2" 0 0 2 3676 2 4 2 12
"668" 668 2 "a2" 0 0 3 1762 2 4 3 12
"669" 669 2 "a2" 1 1 1 1159 2 1 6 12
"670" 670 2 "a2" 1 1 1 772 2 1 6 12
"671" 671 2 "a2" 1 1 2 2590 2 1 5 12
"672" 672 2 "a2" 1 1 1 927 2 1 6 12
"673" 673 2 "a2" 1 1 1 774 2 1 6 12
"674" 674 2 "a2" 0 0 2 4447 2 4 2 12
"675" 675 2 "a2" 1 1 1 1536 2 1 6 12
"676" 676 2 "a2" 1 1 1 964 2 1 6 12
"677" 677 2 "a2" 0 0 1 2607 2 4 1 12
"678" 678 2 "a2" 1 1 1 1085 2 1 6 12
"679" 679 2 "a2" 0 1 3 634 2 3 4 12
"680" 680 2 "a2" 1 1 1 2200 2 1 6 12
"681" 681 2 "a2" 1 1 1 1146 2 1 6 12
"682" 682 2 "a2" 0 0 1 2066 2 4 1 12
"683" 683 2 "a2" 0 0 2 2308 2 4 2 12
"684" 684 2 "a2" 0 1 1 1209 2 3 6 12
"685" 685 2 "a2" 1 1 1 878 2 1 6 12
"686" 686 2 "a2" 0 0 3 1638 2 4 3 12
"687" 687 2 "a2" 1 1 1 1598 2 1 6 12
"688" 688 2 "a2" 0 0 1 1711 2 4 1 12
"689" 689 2 "a2" 0 0 1 3216 2 4 1 12
"690" 690 2 "a2" 1 0 1 1452 2 2 1 12
"691" 691 2 "a2" 1 0 2 3010 2 2 2 12
"692" 692 2 "a2" 0 0 1 3902 2 4 1 12
"693" 693 2 "a2" 1 1 1 1167 2 1 6 12
"694" 694 2 "a2" 0 0 2 3392 2 4 2 12
"695" 695 2 "a2" 0 0 2 2331 2 4 2 12
"696" 696 2 "a2" 0 0 2 1545 2 4 2 12
"697" 697 2 "a2" 1 0 2 1428 2 2 2 12
"698" 698 2 "a2" 1 1 2 4217 2 1 5 12
"699" 699 2 "a2" 1 0 2 5139 2 2 2 12
"700" 700 2 "a2" 1 0 1 3864 2 2 1 12
"701" 701 2 "a2" 0 0 3 4353 3 4 3 3
"702" 702 2 "a2" 1 1 2 2971 3 1 5 3
"703" 703 2 "a2" 1 1 1 942 3 1 6 3
"704" 704 2 "a2" 1 1 1 1137 3 1 6 3
"705" 705 2 "a2" 1 1 1 2846 3 1 6 3
"706" 706 2 "a2" 1 1 1 814 3 1 6 3
"707" 707 2 "a2" 0 1 2 2104 3 3 5 3
"708" 708 2 "a2" 0 0 3 1933 3 4 3 3
"709" 709 2 "a2" 1 0 1 1585 3 2 1 3
"710" 710 2 "a2" 1 1 1 1499 3 1 6 3
"711" 711 2 "a2" 0 0 2 1723 3 4 2 3
"712" 712 2 "a2" 1 1 1 1987 3 1 6 3
"713" 713 2 "a2" 1 1 1 767 3 1 6 3
"714" 714 2 "a2" 0 0 2 2378 3 4 2 3
"715" 715 2 "a2" 1 1 1 1268 3 1 6 3
"716" 716 2 "a2" 0 1 1 621 3 3 6 3
"717" 717 2 "a2" 1 0 1 2187 3 2 1 3
"718" 718 2 "a2" 0 0 3 2968 3 4 3 3
"719" 719 2 "a2" 0 0 1 2588 3 4 1 3
"720" 720 2 "a2" 1 1 1 1274 3 1 6 3
"721" 721 2 "a2" 1 1 1 854 3 1 6 3
"722" 722 2 "a2" 1 1 1 966 3 1 6 3
"723" 723 2 "a2" 1 1 1 827 3 1 6 3
"724" 724 2 "a2" 0 0 1 1851 3 4 1 3
"725" 725 2 "a2" 0 0 2 1912 3 4 2 3
"726" 726 2 "a2" 1 1 1 1264 3 1 6 3
"727" 727 2 "a2" 1 1 1 793 3 1 6 3
"728" 728 2 "a2" 1 1 2 2202 3 1 5 3
"729" 729 2 "a2" 1 1 1 851 3 1 6 3
"730" 730 2 "a2" 1 1 1 783 3 1 6 3
"731" 731 2 "a2" 1 1 1 745 3 1 6 3
"732" 732 2 "a2" 1 1 1 5505 3 1 6 3
"733" 733 2 "a2" 1 1 1 729 3 1 6 3
"734" 734 2 "a2" 1 1 1 693 3 1 6 3
"735" 735 2 "a2" 1 1 1 746 3 1 6 3
"736" 736 2 "a2" 0 0 1 2045 3 4 1 3
"737" 737 2 "a2" 1 1 1 1214 3 1 6 3
"738" 738 2 "a2" 0 0 1 1884 3 4 1 3
"739" 739 2 "a2" 0 0 1 1116 3 4 1 3
"740" 740 2 "a2" 0 0 2 2057 3 4 2 3
"741" 741 2 "a2" 1 1 1 1163 3 1 6 3
"742" 742 2 "a2" 0 1 2 2517 3 3 5 3
"743" 743 2 "a2" 0 0 2 2724 3 4 2 3
"744" 744 2 "a2" 1 1 1 1233 3 1 6 3
"745" 745 2 "a2" 0 0 2 4105 3 4 2 3
"746" 746 2 "a2" 0 0 2 3089 3 4 2 3
"747" 747 2 "a2" 0 0 1 1593 3 4 1 3
"748" 748 2 "a2" 0 0 1 2103 3 4 1 3
"749" 749 2 "a2" 0 0 1 1792 3 4 1 3
"750" 750 2 "a2" 1 1 1 1187 3 1 6 3
"751" 751 2 "a2" 0 0 2 2413 3 4 2 3
"752" 752 2 "a2" 1 1 1 1279 3 1 6 3
"753" 753 2 "a2" 0 0 2 2475 3 4 2 3
"754" 754 2 "a2" 1 1 1 4163 3 1 6 3
"755" 755 2 "a2" 1 1 2 3016 3 1 5 3
"756" 756 2 "a2" 0 0 2 1791 3 4 2 3
"757" 757 2 "a2" 1 1 1 1290 3 1 6 3
"758" 758 2 "a2" 0 0 3 3092 3 4 3 3
"759" 759 2 "a2" 1 1 2 1379 3 1 5 3
"760" 760 2 "a2" 1 1 1 1732 3 1 6 3
"761" 761 2 "a2" 1 1 1 755 3 1 6 3
"762" 762 2 "a2" 0 0 1 1472 3 4 1 3
"763" 763 2 "a2" 0 0 1 886 3 4 1 3
"764" 764 2 "a2" 1 0 3 3655 3 2 3 3
"765" 765 2 "a2" 0 0 1 3080 3 4 1 3
"766" 766 2 "a2" 0 1 1 1246 3 3 6 3
"767" 767 2 "a2" 0 0 2 2708 3 4 2 3
"768" 768 2 "a2" 0 0 2 2740 3 4 2 3
"769" 769 2 "a2" 0 1 1 1466 3 3 6 3
"770" 770 2 "a2" 1 1 1 773 3 1 6 3
"771" 771 2 "a2" 1 1 1 672 3 1 6 3
"772" 772 2 "a2" 1 1 1 892 3 1 6 3
"773" 773 2 "a2" 1 1 2 1369 3 1 5 3
"774" 774 2 "a2" 0 0 2 6837 3 4 2 3
"775" 775 2 "a2" 1 1 2 1134 3 1 5 3
"776" 776 2 "a2" 0 0 2 1893 3 4 2 3
"777" 777 2 "a2" 0 0 1 1418 3 4 1 3
"778" 778 2 "a2" 0 0 1 1371 3 4 1 3
"779" 779 2 "a2" 1 1 1 1193 3 1 6 3
"780" 780 2 "a2" 1 1 1 1930 3 1 6 3
"781" 781 2 "a2" 0 1 1 906 3 3 6 3
"782" 782 2 "a2" 0 0 1 2064 3 4 1 3
"783" 783 2 "a2" 1 1 1 1168 3 1 6 3
"784" 784 2 "a2" 0 1 1 1121 3 3 6 3
"785" 785 2 "a2" 1 1 1 784 3 1 6 3
"786" 786 2 "a2" 0 0 2 1463 3 4 2 3
"787" 787 2 "a2" 0 1 2 2679 3 3 5 3
"788" 788 2 "a2" 0 1 2 2359 3 3 5 3
"789" 789 2 "a2" 0 0 2 2174 3 4 2 3
"790" 790 2 "a2" 0 0 2 1081 3 4 2 3
"791" 791 2 "a2" 1 1 1 1528 3 1 6 3
"792" 792 2 "a2" 0 1 3 2810 3 3 4 3
"793" 793 2 "a2" 0 0 2 3366 3 4 2 3
"794" 794 2 "a2" 1 1 1 2691 3 1 6 3
"795" 795 2 "a2" 0 0 1 2230 3 4 1 3
"796" 796 2 "a2" 0 0 1 3177 3 4 1 3
"797" 797 2 "a2" 0 0 1 937 3 4 1 3
"798" 798 2 "a2" 1 1 1 1259 3 1 6 3
"799" 799 2 "a2" 0 1 2 700 3 3 5 3
"800" 800 2 "a2" 1 1 1 1345 3 1 6 3
"801" 801 2 "a2" 0 1 1 1739 4 3 6 45
"802" 802 2 "a2" 0 0 2 1885 4 4 2 45
"803" 803 2 "a2" 0 1 1 1314 4 3 6 45
"804" 804 2 "a2" 1 1 1 1312 4 1 6 45
"805" 805 2 "a2" 1 1 3 2285 4 1 4 45
"806" 806 2 "a2" 0 1 2 1682 4 3 5 45
"807" 807 2 "a2" 0 0 1 1949 4 4 1 45
"808" 808 2 "a2" 0 0 1 3589 4 4 1 45
"809" 809 2 "a2" 0 1 1 1879 4 3 6 45
"810" 810 2 "a2" 0 1 2 767 4 3 5 45
"811" 811 2 "a2" 1 1 1 987 4 1 6 45
"812" 812 2 "a2" 0 0 2 2471 4 4 2 45
"813" 813 2 "a2" 1 1 1 2734 4 1 6 45
"814" 814 2 "a2" 1 1 1 749 4 1 6 45
"815" 815 2 "a2" 1 1 1 788 4 1 6 45
"816" 816 2 "a2" 1 1 1 732 4 1 6 45
"817" 817 2 "a2" 0 0 1 1534 4 4 1 45
"818" 818 2 "a2" 1 1 1 917 4 1 6 45
"819" 819 2 "a2" 1 1 2 2226 4 1 5 45
"820" 820 2 "a2" 1 1 1 857 4 1 6 45
"821" 821 2 "a2" 1 1 1 841 4 1 6 45
"822" 822 2 "a2" 0 0 2 1399 4 4 2 45
"823" 823 2 "a2" 0 0 2 1564 4 4 2 45
"824" 824 2 "a2" 1 1 1 3685 4 1 6 45
"825" 825 2 "a2" 0 0 2 1311 4 4 2 45
"826" 826 2 "a2" 0 0 2 3073 4 4 2 45
"827" 827 2 "a2" 0 0 3 3177 4 4 3 45
"828" 828 2 "a2" 0 0 2 2154 4 4 2 45
"829" 829 2 "a2" 0 0 2 3852 4 4 2 45
"830" 830 2 "a2" 0 1 2 3853 4 3 5 45
"831" 831 2 "a2" 0 1 2 4886 4 3 5 45
"832" 832 2 "a2" 0 0 2 1381 4 4 2 45
"833" 833 2 "a2" 1 1 1 948 4 1 6 45
"834" 834 2 "a2" 0 1 2 3738 4 3 5 45
"835" 835 2 "a2" 0 0 2 3454 4 4 2 45
"836" 836 2 "a2" 0 0 1 1924 4 4 1 45
"837" 837 2 "a2" 1 1 1 1348 4 1 6 45
"838" 838 2 "a2" 0 0 2 4315 4 4 2 45
"839" 839 2 "a2" 0 0 2 1313 4 4 2 45
"840" 840 2 "a2" 1 1 1 1126 4 1 6 45
"841" 841 2 "a2" 1 1 1 720 4 1 6 45
"842" 842 2 "a2" 1 1 1 807 4 1 6 45
"843" 843 2 "a2" 1 1 1 808 4 1 6 45
"844" 844 2 "a2" 1 1 1 1912 4 1 6 45
"845" 845 2 "a2" 0 0 2 1512 4 4 2 45
"846" 846 2 "a2" 1 1 1 1101 4 1 6 45
"847" 847 2 "a2" 0 1 3 736 4 3 4 45
"848" 848 2 "a2" 0 0 2 2375 4 4 2 45
"849" 849 2 "a2" 1 1 1 4427 4 1 6 45
"850" 850 2 "a2" 0 1 1 712 4 3 6 45
"851" 851 2 "a2" 1 1 1 1139 4 1 6 45
"852" 852 2 "a2" 0 0 2 2658 4 4 2 45
"853" 853 2 "a2" 0 1 2 3073 4 3 5 45
"854" 854 2 "a2" 0 0 1 1688 4 4 1 45
"855" 855 2 "a2" 0 1 2 1937 4 3 5 45
"856" 856 2 "a2" 0 0 1 1579 4 4 1 45
"857" 857 2 "a2" 1 1 2 2794 4 1 5 45
"858" 858 2 "a2" 1 1 1 1934 4 1 6 45
"859" 859 2 "a2" 0 1 1 932 4 3 6 45
"860" 860 2 "a2" 0 1 1 786 4 3 6 45
"861" 861 2 "a2" 0 0 2 2922 4 4 2 45
"862" 862 2 "a2" 0 0 2 1528 4 4 2 45
"863" 863 2 "a2" 0 0 2 4608 4 4 2 45
"864" 864 2 "a2" 0 1 2 3648 4 3 5 45
"865" 865 2 "a2" 1 1 2 774 4 1 5 45
"866" 866 2 "a2" 0 0 2 1238 4 4 2 45
"867" 867 2 "a2" 0 1 1 2097 4 3 6 45
"868" 868 2 "a2" 0 0 1 1521 4 4 1 45
"869" 869 2 "a2" 0 1 1 1224 4 3 6 45
"870" 870 2 "a2" 0 0 2 1438 4 4 2 45
"871" 871 2 "a2" 1 1 1 3366 4 1 6 45
"872" 872 2 "a2" 0 1 2 1635 4 3 5 45
"873" 873 2 "a2" 0 1 3 2202 4 3 4 45
"874" 874 2 "a2" 0 0 2 2176 4 4 2 45
"875" 875 2 "a2" 1 1 1 1186 4 1 6 45
"876" 876 2 "a2" 1 0 2 2171 4 2 2 45
"877" 877 2 "a2" 0 0 2 2887 4 4 2 45
"878" 878 2 "a2" 1 1 1 1376 4 1 6 45
"879" 879 2 "a2" 0 1 1 565 4 3 6 45
"880" 880 2 "a2" 0 1 2 1120 4 3 5 45
"881" 881 2 "a2" 0 1 1 1136 4 3 6 45
"882" 882 2 "a2" 1 1 1 1161 4 1 6 45
"883" 883 2 "a2" 0 0 2 1102 4 4 2 45
"884" 884 2 "a2" 0 0 1 1077 4 4 1 45
"885" 885 2 "a2" 1 1 1 960 4 1 6 45
"886" 886 2 "a2" 0 0 2 1467 4 4 2 45
"887" 887 2 "a2" 0 1 1 970 4 3 6 45
"888" 888 2 "a2" 1 1 2 2254 4 1 5 45
"889" 889 2 "a2" 1 1 3 2563 4 1 4 45
"890" 890 2 "a2" 0 0 2 1850 4 4 2 45
"891" 891 2 "a2" 0 0 1 1017 4 4 1 45
"892" 892 2 "a2" 0 0 1 1001 4 4 1 45
"893" 893 2 "a2" 0 1 1 6093 4 3 6 45
"894" 894 2 "a2" 0 1 1 944 4 3 6 45
"895" 895 2 "a2" 1 1 1 927 4 1 6 45
"896" 896 2 "a2" 1 1 1 678 4 1 6 45
"897" 897 2 "a2" 0 1 3 980 4 3 4 45
"898" 898 2 "a2" 0 0 2 1902 4 4 2 45
"899" 899 2 "a2" 0 0 1 1617 4 4 1 45
"900" 900 2 "a2" 0 0 1 1020 4 4 1 45
"901" 901 2 "a2" 0 1 2 3469 5 3 5 45
"902" 902 2 "a2" 0 1 2 1223 5 3 5 45
"903" 903 2 "a2" 0 0 2 1736 5 4 2 45
"904" 904 2 "a2" 0 1 1 1231 5 3 6 45
"905" 905 2 "a2" 1 1 1 1115 5 1 6 45
"906" 906 2 "a2" 1 0 2 6307 5 2 2 45
"907" 907 2 "a2" 0 0 1 1479 5 4 1 45
"908" 908 2 "a2" 0 0 1 986 5 4 1 45
"909" 909 2 "a2" 1 1 1 1153 5 1 6 45
"910" 910 2 "a2" 1 1 1 768 5 1 6 45
"911" 911 2 "a2" 0 0 1 1672 5 4 1 45
"912" 912 2 "a2" 0 0 2 1257 5 4 2 45
"913" 913 2 "a2" 0 0 1 1903 5 4 1 45
"914" 914 2 "a2" 0 0 1 1431 5 4 1 45
"915" 915 2 "a2" 0 1 1 3432 5 3 6 45
"916" 916 2 "a2" 0 0 2 2536 5 4 2 45
"917" 917 2 "a2" 0 0 1 1544 5 4 1 45
"918" 918 2 "a2" 0 0 1 1687 5 4 1 45
"919" 919 2 "a2" 0 1 2 3344 5 3 5 45
"920" 920 2 "a2" 0 1 1 1680 5 3 6 45
"921" 921 2 "a2" 0 0 2 2638 5 4 2 45
"922" 922 2 "a2" 0 0 1 1335 5 4 1 45
"923" 923 2 "a2" 0 1 2 1389 5 3 5 45
"924" 924 2 "a2" 0 0 2 1158 5 4 2 45
"925" 925 2 "a2" 0 0 2 673 5 4 2 45
"926" 926 2 "a2" 0 1 2 1585 5 3 5 45
"927" 927 2 "a2" 0 0 2 1988 5 4 2 45
"928" 928 2 "a2" 0 0 2 1102 5 4 2 45
"929" 929 2 "a2" 0 0 2 1035 5 4 2 45
"930" 930 2 "a2" 0 0 2 1391 5 4 2 45
"931" 931 2 "a2" 0 1 2 2763 5 3 5 45
"932" 932 2 "a2" 0 0 2 2917 5 4 2 45
"933" 933 2 "a2" 0 1 2 1215 5 3 5 45
"934" 934 2 "a2" 0 0 2 1226 5 4 2 45
"935" 935 2 "a2" 0 1 1 1121 5 3 6 45
"936" 936 2 "a2" 0 1 2 2956 5 3 5 45
"937" 937 2 "a2" 0 1 2 2311 5 3 5 45
"938" 938 2 "a2" 0 1 2 928 5 3 5 45
"939" 939 2 "a2" 0 1 3 304 5 3 4 45
"940" 940 2 "a2" 0 0 2 4585 5 4 2 45
"941" 941 2 "a2" 0 0 1 2164 5 4 1 45
"942" 942 2 "a2" 0 0 1 1402 5 4 1 45
"943" 943 2 "a2" 0 0 1 776 5 4 1 45
"944" 944 2 "a2" 0 0 1 1035 5 4 1 45
"945" 945 2 "a2" 0 0 1 1147 5 4 1 45
"946" 946 2 "a2" 0 1 2 2797 5 3 5 45
"947" 947 2 "a2" 0 0 2 1601 5 4 2 45
"948" 948 2 "a2" 0 0 1 909 5 4 1 45
"949" 949 2 "a2" 0 0 1 927 5 4 1 45
"950" 950 2 "a2" 0 0 1 1407 5 4 1 45
"951" 951 2 "a2" 0 0 2 3363 5 4 2 45
"952" 952 2 "a2" 0 0 1 1377 5 4 1 45
"953" 953 2 "a2" 0 0 1 822 5 4 1 45
"954" 954 2 "a2" 1 1 1 1331 5 1 6 45
"955" 955 2 "a2" 1 1 1 1014 5 1 6 45
"956" 956 2 "a2" 0 1 1 614 5 3 6 45
"957" 957 2 "a2" 0 1 3 1330 5 3 4 45
"958" 958 2 "a2" 0 0 1 1314 5 4 1 45
"959" 959 2 "a2" 0 0 2 2004 5 4 2 45
"960" 960 2 "a2" 0 0 2 2676 5 4 2 45
"961" 961 2 "a2" 0 0 1 2134 5 4 1 45
"962" 962 2 "a2" 0 0 1 1669 5 4 1 45
"963" 963 2 "a2" 0 0 1 699 5 4 1 45
"964" 964 2 "a2" 0 0 1 607 5 4 1 45
"965" 965 2 "a2" 1 0 1 551 5 2 1 45
"966" 966 2 "a2" 0 1 2 1525 5 3 5 45
"967" 967 2 "a2" 0 0 2 2320 5 4 2 45
"968" 968 2 "a2" 0 0 1 937 5 4 1 45
"969" 969 2 "a2" 0 0 1 2562 5 4 1 45
"970" 970 2 "a2" 0 0 2 2171 5 4 2 45
"971" 971 2 "a2" 1 0 2 1043 5 2 2 45
"972" 972 2 "a2" 0 0 1 2062 5 4 1 45
"973" 973 2 "a2" 0 1 3 3742 5 3 4 45
"974" 974 2 "a2" 0 0 1 2001 5 4 1 45
"975" 975 2 "a2" 0 1 2 2010 5 3 5 45
"976" 976 2 "a2" 0 0 2 1331 5 4 2 45
"977" 977 2 "a2" 0 1 1 1672 5 3 6 45
"978" 978 2 "a2" 0 1 2 992 5 3 5 45
"979" 979 2 "a2" 1 1 1 1238 5 1 6 45
"980" 980 2 "a2" 0 0 2 2359 5 4 2 45
"981" 981 2 "a2" 0 1 2 2403 5 3 5 45
"982" 982 2 "a2" 1 1 1 909 5 1 6 45
"983" 983 2 "a2" 0 0 2 2155 5 4 2 45
"984" 984 2 "a2" 1 1 1 1672 5 1 6 45
"985" 985 2 "a2" 0 1 1 881 5 3 6 45
"986" 986 2 "a2" 0 0 2 2407 5 4 2 45
"987" 987 2 "a2" 1 1 1 5070 5 1 6 45
"988" 988 2 "a2" 0 0 2 1737 5 4 2 45
"989" 989 2 "a2" 0 1 2 1887 5 3 5 45
"990" 990 2 "a2" 0 0 2 3753 5 4 2 45
"991" 991 2 "a2" 1 1 3 3861 5 1 4 45
"992" 992 2 "a2" 0 1 1 2609 5 3 6 45
"993" 993 2 "a2" 1 1 2 1169 5 1 5 45
"994" 994 2 "a2" 0 1 2 2228 5 3 5 45
"995" 995 2 "a2" 0 0 2 5077 5 4 2 45
"996" 996 2 "a2" 0 0 2 1770 5 4 2 45
"997" 997 2 "a2" 0 0 1 622 5 4 1 45
"998" 998 2 "a2" 1 1 1 1205 5 1 6 45
"999" 999 2 "a2" 0 1 2 1786 5 3 5 45
"1000" 1000 2 "a2" 0 1 1 968 5 3 6 45
"1001" 1001 3 "b1" 1 1 1 1776 5 1 6 45
"1002" 1002 3 "b1" 0 0 2 3831 5 4 2 45
"1003" 1003 3 "b1" 0 0 1 1148 5 4 1 45
"1004" 1004 3 "b1" 0 0 1 1232 5 4 1 45
"1005" 1005 3 "b1" 0 1 2 1798 5 3 5 45
"1006" 1006 3 "b1" 0 0 3 2164 5 4 3 45
"1007" 1007 3 "b1" 1 1 1 1301 5 1 6 45
"1008" 1008 3 "b1" 1 1 1 1660 5 1 6 45
"1009" 1009 3 "b1" 0 0 1 1355 5 4 1 45
"1010" 1010 3 "b1" 1 1 1 1301 5 1 6 45
"1011" 1011 3 "b1" 0 0 3 2073 5 4 3 45
"1012" 1012 3 "b1" 0 0 1 1966 5 4 1 45
"1013" 1013 3 "b1" 0 0 1 1224 5 4 1 45
"1014" 1014 3 "b1" 0 0 2 1565 5 4 2 45
"1015" 1015 3 "b1" 0 1 1 3236 5 3 6 45
"1016" 1016 3 "b1" 0 0 1 2960 5 4 1 45
"1017" 1017 3 "b1" 0 0 1 1287 5 4 1 45
"1018" 1018 3 "b1" 0 0 2 2347 5 4 2 45
"1019" 1019 3 "b1" 0 0 1 1562 5 4 1 45
"1020" 1020 3 "b1" 0 0 1 1538 5 4 1 45
"1021" 1021 3 "b1" 0 0 1 1134 5 4 1 45
"1022" 1022 3 "b1" 0 1 1 1329 5 3 6 45
"1023" 1023 3 "b1" 0 0 1 1473 5 4 1 45
"1024" 1024 3 "b1" 0 0 1 955 5 4 1 45
"1025" 1025 3 "b1" 1 1 1 1140 5 1 6 45
"1026" 1026 3 "b1" 0 0 1 1238 5 4 1 45
"1027" 1027 3 "b1" 0 0 1 854 5 4 1 45
"1028" 1028 3 "b1" 1 1 2 1505 5 1 5 45
"1029" 1029 3 "b1" 0 0 2 1767 5 4 2 45
"1030" 1030 3 "b1" 0 0 2 1182 5 4 2 45
"1031" 1031 3 "b1" 0 0 3 1287 5 4 3 45
"1032" 1032 3 "b1" 0 0 1 2956 5 4 1 45
"1033" 1033 3 "b1" 1 1 1 1456 5 1 6 45
"1034" 1034 3 "b1" 0 1 2 2095 5 3 5 45
"1035" 1035 3 "b1" 0 0 1 1737 5 4 1 45
"1036" 1036 3 "b1" 0 0 1 928 5 4 1 45
"1037" 1037 3 "b1" 0 0 1 1286 5 4 1 45
"1038" 1038 3 "b1" 0 0 1 1082 5 4 1 45
"1039" 1039 3 "b1" 0 0 1 942 5 4 1 45
"1040" 1040 3 "b1" 0 0 2 1023 5 4 2 45
"1041" 1041 3 "b1" 0 0 1 916 5 4 1 45
"1042" 1042 3 "b1" 0 1 1 1152 5 3 6 45
"1043" 1043 3 "b1" 0 0 1 2246 5 4 1 45
"1044" 1044 3 "b1" 0 0 1 1021 5 4 1 45
"1045" 1045 3 "b1" 0 0 1 811 5 4 1 45
"1046" 1046 3 "b1" 0 0 1 856 5 4 1 45
"1047" 1047 3 "b1" 0 0 1 1318 5 4 1 45
"1048" 1048 3 "b1" 0 1 2 1388 5 3 5 45
"1049" 1049 3 "b1" 0 0 1 1020 5 4 1 45
"1050" 1050 3 "b1" 0 0 1 868 5 4 1 45
"1051" 1051 3 "b1" 0 0 1 801 5 4 1 45
"1052" 1052 3 "b1" 0 1 2 1383 5 3 5 45
"1053" 1053 3 "b1" 0 0 1 1759 5 4 1 45
"1054" 1054 3 "b1" 0 0 1 737 5 4 1 45
"1055" 1055 3 "b1" 0 0 1 982 5 4 1 45
"1056" 1056 3 "b1" 0 0 1 952 5 4 1 45
"1057" 1057 3 "b1" 0 0 1 843 5 4 1 45
"1058" 1058 3 "b1" 0 0 1 934 5 4 1 45
"1059" 1059 3 "b1" 0 0 1 794 5 4 1 45
"1060" 1060 3 "b1" 1 0 1 699 5 2 1 45
"1061" 1061 3 "b1" 0 0 1 1491 5 4 1 45
"1062" 1062 3 "b1" 0 1 2 2593 5 3 5 45
"1063" 1063 3 "b1" 1 0 1 829 5 2 1 45
"1064" 1064 3 "b1" 0 0 1 2360 5 4 1 45
"1065" 1065 3 "b1" 1 1 1 1953 5 1 6 45
"1066" 1066 3 "b1" 1 1 1 1446 5 1 6 45
"1067" 1067 3 "b1" 1 1 1 839 5 1 6 45
"1068" 1068 3 "b1" 0 0 2 2641 5 4 2 45
"1069" 1069 3 "b1" 0 0 2 1079 5 4 2 45
"1070" 1070 3 "b1" 0 0 2 1092 5 4 2 45
"1071" 1071 3 "b1" 0 0 1 897 5 4 1 45
"1072" 1072 3 "b1" 0 0 1 972 5 4 1 45
"1073" 1073 3 "b1" 0 0 2 2486 5 4 2 45
"1074" 1074 3 "b1" 0 0 1 1043 5 4 1 45
"1075" 1075 3 "b1" 0 0 1 1210 5 4 1 45
"1076" 1076 3 "b1" 0 0 1 1136 5 4 1 45
"1077" 1077 3 "b1" 0 0 1 1300 5 4 1 45
"1078" 1078 3 "b1" 0 0 2 931 5 4 2 45
"1079" 1079 3 "b1" 0 0 2 1004 5 4 2 45
"1080" 1080 3 "b1" 0 0 1 1526 5 4 1 45
"1081" 1081 3 "b1" 0 0 1 938 5 4 1 45
"1082" 1082 3 "b1" 0 0 1 890 5 4 1 45
"1083" 1083 3 "b1" 1 1 2 1267 5 1 5 45
"1084" 1084 3 "b1" 0 0 1 1325 5 4 1 45
"1085" 1085 3 "b1" 0 0 1 829 5 4 1 45
"1086" 1086 3 "b1" 0 0 1 693 5 4 1 45
"1087" 1087 3 "b1" 0 0 1 767 5 4 1 45
"1088" 1088 3 "b1" 0 0 1 664 5 4 1 45
"1089" 1089 3 "b1" 0 0 1 738 5 4 1 45
"1090" 1090 3 "b1" 0 0 1 1034 5 4 1 45
"1091" 1091 3 "b1" 0 0 1 2203 5 4 1 45
"1092" 1092 3 "b1" 0 0 1 670 5 4 1 45
"1093" 1093 3 "b1" 0 0 1 1583 5 4 1 45
"1094" 1094 3 "b1" 1 1 1 1441 5 1 6 45
"1095" 1095 3 "b1" 0 0 1 1178 5 4 1 45
"1096" 1096 3 "b1" 0 0 1 797 5 4 1 45
"1097" 1097 3 "b1" 0 1 2 1391 5 3 5 45
"1098" 1098 3 "b1" 0 0 1 987 5 4 1 45
"1099" 1099 3 "b1" 1 1 1 1236 5 1 6 45
"1100" 1100 3 "b1" 0 0 2 1517 5 4 2 45
"1101" 1101 3 "b1" 0 0 1 3778 4 4 1 45
"1102" 1102 3 "b1" 0 1 2 2423 4 3 5 45
"1103" 1103 3 "b1" 0 0 1 1288 4 4 1 45
"1104" 1104 3 "b1" 0 0 1 809 4 4 1 45
"1105" 1105 3 "b1" 1 0 2 1957 4 2 2 45
"1106" 1106 3 "b1" 1 1 1 1081 4 1 6 45
"1107" 1107 3 "b1" 1 1 2 2072 4 1 5 45
"1108" 1108 3 "b1" 0 0 2 849 4 4 2 45
"1109" 1109 3 "b1" 0 0 1 859 4 4 1 45
"1110" 1110 3 "b1" 0 0 1 658 4 4 1 45
"1111" 1111 3 "b1" 1 1 1 1014 4 1 6 45
"1112" 1112 3 "b1" 0 0 1 744 4 4 1 45
"1113" 1113 3 "b1" 1 0 2 1820 4 2 2 45
"1114" 1114 3 "b1" 1 0 1 2921 4 2 1 45
"1115" 1115 3 "b1" 0 0 1 1198 4 4 1 45
"1116" 1116 3 "b1" 1 1 1 1231 4 1 6 45
"1117" 1117 3 "b1" 1 1 2 1241 4 1 5 45
"1118" 1118 3 "b1" 1 1 1 988 4 1 6 45
"1119" 1119 3 "b1" 0 0 2 2087 4 4 2 45
"1120" 1120 3 "b1" 0 1 2 2186 4 3 5 45
"1121" 1121 3 "b1" 0 0 1 1690 4 4 1 45
"1122" 1122 3 "b1" 0 0 1 1080 4 4 1 45
"1123" 1123 3 "b1" 1 1 2 1359 4 1 5 45
"1124" 1124 3 "b1" 0 0 1 1401 4 4 1 45
"1125" 1125 3 "b1" 1 1 1 1130 4 1 6 45
"1126" 1126 3 "b1" 1 0 2 1312 4 2 2 45
"1127" 1127 3 "b1" 0 0 1 2555 4 4 1 45
"1128" 1128 3 "b1" 0 1 1 1390 4 3 6 45
"1129" 1129 3 "b1" 1 1 1 947 4 1 6 45
"1130" 1130 3 "b1" 1 1 1 897 4 1 6 45
"1131" 1131 3 "b1" 0 0 1 1000 4 4 1 45
"1132" 1132 3 "b1" 1 0 2 2200 4 2 2 45
"1133" 1133 3 "b1" 0 0 1 1605 4 4 1 45
"1134" 1134 3 "b1" 1 0 3 856 4 2 3 45
"1135" 1135 3 "b1" 0 0 2 1215 4 4 2 45
"1136" 1136 3 "b1" 0 0 2 1447 4 4 2 45
"1137" 1137 3 "b1" 1 0 2 1240 4 2 2 45
"1138" 1138 3 "b1" 0 0 2 1502 4 4 2 45
"1139" 1139 3 "b1" 0 0 1 927 4 4 1 45
"1140" 1140 3 "b1" 1 0 1 944 4 2 1 45
"1141" 1141 3 "b1" 0 0 1 899 4 4 1 45
"1142" 1142 3 "b1" 0 0 1 1148 4 4 1 45
"1143" 1143 3 "b1" 1 1 1 1689 4 1 6 45
"1144" 1144 3 "b1" 0 0 1 1020 4 4 1 45
"1145" 1145 3 "b1" 0 0 1 1087 4 4 1 45
"1146" 1146 3 "b1" 0 0 1 1028 4 4 1 45
"1147" 1147 3 "b1" 1 1 1 949 4 1 6 45
"1148" 1148 3 "b1" 0 0 2 1716 4 4 2 45
"1149" 1149 3 "b1" 0 0 2 1120 4 4 2 45
"1150" 1150 3 "b1" 0 0 1 967 4 4 1 45
"1151" 1151 3 "b1" 0 0 1 836 4 4 1 45
"1152" 1152 3 "b1" 0 0 1 870 4 4 1 45
"1153" 1153 3 "b1" 0 0 2 1230 4 4 2 45
"1154" 1154 3 "b1" 0 0 2 830 4 4 2 45
"1155" 1155 3 "b1" 0 0 2 823 4 4 2 45
"1156" 1156 3 "b1" 0 0 2 747 4 4 2 45
"1157" 1157 3 "b1" 0 0 1 2382 4 4 1 45
"1158" 1158 3 "b1" 0 0 2 914 4 4 2 45
"1159" 1159 3 "b1" 1 1 1 1134 4 1 6 45
"1160" 1160 3 "b1" 0 0 1 1316 4 4 1 45
"1161" 1161 3 "b1" 0 0 1 888 4 4 1 45
"1162" 1162 3 "b1" 0 0 1 1174 4 4 1 45
"1163" 1163 3 "b1" 0 1 1 1457 4 3 6 45
"1164" 1164 3 "b1" 1 1 1 1443 4 1 6 45
"1165" 1165 3 "b1" 0 1 2 1870 4 3 5 45
"1166" 1166 3 "b1" 1 0 1 2058 4 2 1 45
"1167" 1167 3 "b1" 1 0 2 2395 4 2 2 45
"1168" 1168 3 "b1" 0 0 1 1189 4 4 1 45
"1169" 1169 3 "b1" 1 1 1 1231 4 1 6 45
"1170" 1170 3 "b1" 0 0 1 2609 4 4 1 45
"1171" 1171 3 "b1" 0 0 1 980 4 4 1 45
"1172" 1172 3 "b1" 1 0 1 1586 4 2 1 45
"1173" 1173 3 "b1" 0 0 1 1131 4 4 1 45
"1174" 1174 3 "b1" 1 1 1 1248 4 1 6 45
"1175" 1175 3 "b1" 0 0 2 988 4 4 2 45
"1176" 1176 3 "b1" 1 0 2 1376 4 2 2 45
"1177" 1177 3 "b1" 0 0 1 1373 4 4 1 45
"1178" 1178 3 "b1" 0 1 2 1633 4 3 5 45
"1179" 1179 3 "b1" 0 0 1 2092 4 4 1 45
"1180" 1180 3 "b1" 1 1 1 1523 4 1 6 45
"1181" 1181 3 "b1" 1 0 1 891 4 2 1 45
"1182" 1182 3 "b1" 0 0 2 1993 4 4 2 45
"1183" 1183 3 "b1" 0 0 1 1350 4 4 1 45
"1184" 1184 3 "b1" 0 0 1 1519 4 4 1 45
"1185" 1185 3 "b1" 0 0 1 759 4 4 1 45
"1186" 1186 3 "b1" 0 0 1 853 4 4 1 45
"1187" 1187 3 "b1" 0 0 1 1697 4 4 1 45
"1188" 1188 3 "b1" 0 0 1 784 4 4 1 45
"1189" 1189 3 "b1" 0 0 1 796 4 4 1 45
"1190" 1190 3 "b1" 0 0 1 777 4 4 1 45
"1191" 1191 3 "b1" 0 0 1 846 4 4 1 45
"1192" 1192 3 "b1" 1 0 2 1030 4 2 2 45
"1193" 1193 3 "b1" 0 0 1 1095 4 4 1 45
"1194" 1194 3 "b1" 1 1 1 1152 4 1 6 45
"1195" 1195 3 "b1" 1 0 2 934 4 2 2 45
"1196" 1196 3 "b1" 0 0 1 1148 4 4 1 45
"1197" 1197 3 "b1" 0 1 2 1489 4 3 5 45
"1198" 1198 3 "b1" 0 0 1 1028 4 4 1 45
"1199" 1199 3 "b1" 1 1 1 1372 4 1 6 45
"1200" 1200 3 "b1" 1 0 1 986 4 2 1 45
"1201" 1201 3 "b1" 1 1 1 2952 3 1 6 3
"1202" 1202 3 "b1" 0 0 1 1360 3 4 1 3
"1203" 1203 3 "b1" 1 1 2 1781 3 1 5 3
"1204" 1204 3 "b1" 0 0 2 1822 3 4 2 3
"1205" 1205 3 "b1" 1 1 1 1192 3 1 6 3
"1206" 1206 3 "b1" 0 1 2 2699 3 3 5 3
"1207" 1207 3 "b1" 1 1 2 1181 3 1 5 3
"1208" 1208 3 "b1" 0 0 2 1136 3 4 2 3
"1209" 1209 3 "b1" 1 0 2 983 3 2 2 3
"1210" 1210 3 "b1" 1 1 1 911 3 1 6 3
"1211" 1211 3 "b1" 0 0 1 954 3 4 1 3
"1212" 1212 3 "b1" 0 0 1 1100 3 4 1 3
"1213" 1213 3 "b1" 0 0 1 1058 3 4 1 3
"1214" 1214 3 "b1" 1 1 1 994 3 1 6 3
"1215" 1215 3 "b1" 1 1 1 809 3 1 6 3
"1216" 1216 3 "b1" 0 0 1 983 3 4 1 3
"1217" 1217 3 "b1" 1 0 1 1067 3 2 1 3
"1218" 1218 3 "b1" 0 0 2 1450 3 4 2 3
"1219" 1219 3 "b1" 1 0 2 838 3 2 2 3
"1220" 1220 3 "b1" 0 0 1 952 3 4 1 3
"1221" 1221 3 "b1" 1 1 2 2830 3 1 5 3
"1222" 1222 3 "b1" 0 0 1 1238 3 4 1 3
"1223" 1223 3 "b1" 0 0 1 853 3 4 1 3
"1224" 1224 3 "b1" 0 0 1 865 3 4 1 3
"1225" 1225 3 "b1" 1 1 1 908 3 1 6 3
"1226" 1226 3 "b1" 1 0 2 925 3 2 2 3
"1227" 1227 3 "b1" 1 1 1 1285 3 1 6 3
"1228" 1228 3 "b1" 0 0 2 1061 3 4 2 3
"1229" 1229 3 "b1" 1 0 1 1406 3 2 1 3
"1230" 1230 3 "b1" 0 0 2 1583 3 4 2 3
"1231" 1231 3 "b1" 0 0 2 900 3 4 2 3
"1232" 1232 3 "b1" 1 1 2 1879 3 1 5 3
"1233" 1233 3 "b1" 0 1 2 2577 3 3 5 3
"1234" 1234 3 "b1" 0 0 1 1320 3 4 1 3
"1235" 1235 3 "b1" 0 0 1 682 3 4 1 3
"1236" 1236 3 "b1" 0 0 2 982 3 4 2 3
"1237" 1237 3 "b1" 1 1 2 2097 3 1 5 3
"1238" 1238 3 "b1" 0 0 2 2819 3 4 2 3
"1239" 1239 3 "b1" 1 1 1 1059 3 1 6 3
"1240" 1240 3 "b1" 1 0 1 1043 3 2 1 3
"1241" 1241 3 "b1" 0 1 2 1111 3 3 5 3
"1242" 1242 3 "b1" 0 0 1 1446 3 4 1 3
"1243" 1243 3 "b1" 0 0 1 1371 3 4 1 3
"1244" 1244 3 "b1" 1 1 1 1457 3 1 6 3
"1245" 1245 3 "b1" 0 1 2 1348 3 3 5 3
"1246" 1246 3 "b1" 0 0 1 2103 3 4 1 3
"1247" 1247 3 "b1" 0 0 1 585 3 4 1 3
"1248" 1248 3 "b1" 0 0 1 915 3 4 1 3
"1249" 1249 3 "b1" 1 0 1 681 3 2 1 3
"1250" 1250 3 "b1" 1 1 1 977 3 1 6 3
"1251" 1251 3 "b1" 1 1 1 1165 3 1 6 3
"1252" 1252 3 "b1" 1 1 1 863 3 1 6 3
"1253" 1253 3 "b1" 0 0 1 791 3 4 1 3
"1254" 1254 3 "b1" 1 1 1 666 3 1 6 3
"1255" 1255 3 "b1" 0 1 2 1780 3 3 5 3
"1256" 1256 3 "b1" 0 0 1 796 3 4 1 3
"1257" 1257 3 "b1" 0 0 1 769 3 4 1 3
"1258" 1258 3 "b1" 0 0 1 672 3 4 1 3
"1259" 1259 3 "b1" 1 1 2 1290 3 1 5 3
"1260" 1260 3 "b1" 1 1 1 746 3 1 6 3
"1261" 1261 3 "b1" 0 0 1 632 3 4 1 3
"1262" 1262 3 "b1" 0 0 1 1852 3 4 1 3
"1263" 1263 3 "b1" 0 0 1 3347 3 4 1 3
"1264" 1264 3 "b1" 1 1 1 771 3 1 6 3
"1265" 1265 3 "b1" 0 0 1 704 3 4 1 3
"1266" 1266 3 "b1" 1 0 1 1448 3 2 1 3
"1267" 1267 3 "b1" 1 0 1 1330 3 2 1 3
"1268" 1268 3 "b1" 0 0 1 1284 3 4 1 3
"1269" 1269 3 "b1" 0 0 1 717 3 4 1 3
"1270" 1270 3 "b1" 1 1 1 1182 3 1 6 3
"1271" 1271 3 "b1" 0 0 1 830 3 4 1 3
"1272" 1272 3 "b1" 1 1 1 659 3 1 6 3
"1273" 1273 3 "b1" 1 1 1 688 3 1 6 3
"1274" 1274 3 "b1" 1 0 1 713 3 2 1 3
"1275" 1275 3 "b1" 1 0 1 1315 3 2 1 3
"1276" 1276 3 "b1" 0 0 1 1393 3 4 1 3
"1277" 1277 3 "b1" 1 1 1 1044 3 1 6 3
"1278" 1278 3 "b1" 1 0 2 1080 3 2 2 3
"1279" 1279 3 "b1" 0 0 1 1105 3 4 1 3
"1280" 1280 3 "b1" 1 1 1 818 3 1 6 3
"1281" 1281 3 "b1" 1 1 1 864 3 1 6 3
"1282" 1282 3 "b1" 1 1 1 1488 3 1 6 3
"1283" 1283 3 "b1" 1 1 1 1514 3 1 6 3
"1284" 1284 3 "b1" 0 0 2 1528 3 4 2 3
"1285" 1285 3 "b1" 0 0 2 2159 3 4 2 3
"1286" 1286 3 "b1" 0 1 1 1231 3 3 6 3
"1287" 1287 3 "b1" 1 1 1 757 3 1 6 3
"1288" 1288 3 "b1" 1 1 1 717 3 1 6 3
"1289" 1289 3 "b1" 1 1 1 813 3 1 6 3
"1290" 1290 3 "b1" 1 1 1 592 3 1 6 3
"1291" 1291 3 "b1" 1 0 2 1100 3 2 2 3
"1292" 1292 3 "b1" 0 0 2 923 3 4 2 3
"1293" 1293 3 "b1" 1 1 1 755 3 1 6 3
"1294" 1294 3 "b1" 0 0 2 724 3 4 2 3
"1295" 1295 3 "b1" 0 0 1 827 3 4 1 3
"1296" 1296 3 "b1" 1 0 2 984 3 2 2 3
"1297" 1297 3 "b1" 0 0 1 891 3 4 1 3
"1298" 1298 3 "b1" 0 0 1 1755 3 4 1 3
"1299" 1299 3 "b1" 1 1 2 2080 3 1 5 3
"1300" 1300 3 "b1" 1 1 2 2577 3 1 5 3
"1301" 1301 3 "b1" 1 0 1 1362 2 2 1 12
"1302" 1302 3 "b1" 0 0 1 797 2 4 1 12
"1303" 1303 3 "b1" 1 1 1 1118 2 1 6 12
"1304" 1304 3 "b1" 1 0 1 699 2 2 1 12
"1305" 1305 3 "b1" 0 0 1 926 2 4 1 12
"1306" 1306 3 "b1" 1 1 1 978 2 1 6 12
"1307" 1307 3 "b1" 1 1 1 687 2 1 6 12
"1308" 1308 3 "b1" 1 1 1 1330 2 1 6 12
"1309" 1309 3 "b1" 0 0 2 2745 2 4 2 12
"1310" 1310 3 "b1" 1 1 1 929 2 1 6 12
"1311" 1311 3 "b1" 1 0 3 954 2 2 3 12
"1312" 1312 3 "b1" 1 1 1 817 2 1 6 12
"1313" 1313 3 "b1" 1 1 1 785 2 1 6 12
"1314" 1314 3 "b1" 1 0 2 1404 2 2 2 12
"1315" 1315 3 "b1" 1 1 2 1554 2 1 5 12
"1316" 1316 3 "b1" 0 0 2 1309 2 4 2 12
"1317" 1317 3 "b1" 1 0 1 1154 2 2 1 12
"1318" 1318 3 "b1" 0 0 1 1054 2 4 1 12
"1319" 1319 3 "b1" 0 0 1 910 2 4 1 12
"1320" 1320 3 "b1" 1 1 1 1226 2 1 6 12
"1321" 1321 3 "b1" 0 0 1 820 2 4 1 12
"1322" 1322 3 "b1" 0 0 1 1067 2 4 1 12
"1323" 1323 3 "b1" 1 1 1 1002 2 1 6 12
"1324" 1324 3 "b1" 0 1 1 1155 2 3 6 12
"1325" 1325 3 "b1" 0 0 1 1004 2 4 1 12
"1326" 1326 3 "b1" 1 1 2 2168 2 1 5 12
"1327" 1327 3 "b1" 0 0 1 998 2 4 1 12
"1328" 1328 3 "b1" 1 0 1 1122 2 2 1 12
"1329" 1329 3 "b1" 0 0 1 857 2 4 1 12
"1330" 1330 3 "b1" 0 0 1 852 2 4 1 12
"1331" 1331 3 "b1" 0 1 2 1337 2 3 5 12
"1332" 1332 3 "b1" 0 1 1 826 2 3 6 12
"1333" 1333 3 "b1" 1 1 1 843 2 1 6 12
"1334" 1334 3 "b1" 0 0 2 1257 2 4 2 12
"1335" 1335 3 "b1" 0 0 2 982 2 4 2 12
"1336" 1336 3 "b1" 0 0 2 693 2 4 2 12
"1337" 1337 3 "b1" 1 0 1 632 2 2 1 12
"1338" 1338 3 "b1" 1 0 2 698 2 2 2 12
"1339" 1339 3 "b1" 1 1 1 1458 2 1 6 12
"1340" 1340 3 "b1" 0 0 2 1199 2 4 2 12
"1341" 1341 3 "b1" 0 1 2 989 2 3 5 12
"1342" 1342 3 "b1" 0 0 1 931 2 4 1 12
"1343" 1343 3 "b1" 1 1 1 1065 2 1 6 12
"1344" 1344 3 "b1" 1 1 1 1276 2 1 6 12
"1345" 1345 3 "b1" 1 1 2 1510 2 1 5 12
"1346" 1346 3 "b1" 1 1 1 886 2 1 6 12
"1347" 1347 3 "b1" 1 1 2 768 2 1 5 12
"1348" 1348 3 "b1" 0 0 1 985 2 4 1 12
"1349" 1349 3 "b1" 1 0 1 1029 2 2 1 12
"1350" 1350 3 "b1" 0 1 1 2184 2 3 6 12
"1351" 1351 3 "b1" 1 1 1 991 2 1 6 12
"1352" 1352 3 "b1" 1 1 1 805 2 1 6 12
"1353" 1353 3 "b1" 0 0 1 825 2 4 1 12
"1354" 1354 3 "b1" 1 0 2 1389 2 2 2 12
"1355" 1355 3 "b1" 1 1 1 772 2 1 6 12
"1356" 1356 3 "b1" 1 0 2 2914 2 2 2 12
"1357" 1357 3 "b1" 1 1 1 845 2 1 6 12
"1358" 1358 3 "b1" 0 0 1 1007 2 4 1 12
"1359" 1359 3 "b1" 1 0 1 873 2 2 1 12
"1360" 1360 3 "b1" 0 0 1 1419 2 4 1 12
"1361" 1361 3 "b1" 1 1 1 935 2 1 6 12
"1362" 1362 3 "b1" 0 0 1 954 2 4 1 12
"1363" 1363 3 "b1" 1 1 1 868 2 1 6 12
"1364" 1364 3 "b1" 1 0 1 884 2 2 1 12
"1365" 1365 3 "b1" 1 1 1 770 2 1 6 12
"1366" 1366 3 "b1" 1 1 2 1877 2 1 5 12
"1367" 1367 3 "b1" 1 0 2 1489 2 2 2 12
"1368" 1368 3 "b1" 1 1 1 1382 2 1 6 12
"1369" 1369 3 "b1" 1 0 1 1019 2 2 1 12
"1370" 1370 3 "b1" 0 0 2 2059 2 4 2 12
"1371" 1371 3 "b1" 1 1 1 1076 2 1 6 12
"1372" 1372 3 "b1" 1 1 2 1925 2 1 5 12
"1373" 1373 3 "b1" 1 1 1 1182 2 1 6 12
"1374" 1374 3 "b1" 0 0 1 1089 2 4 1 12
"1375" 1375 3 "b1" 1 0 2 1605 2 2 2 12
"1376" 1376 3 "b1" 0 0 1 1299 2 4 1 12
"1377" 1377 3 "b1" 0 0 1 856 2 4 1 12
"1378" 1378 3 "b1" 0 1 2 1357 2 3 5 12
"1379" 1379 3 "b1" 1 0 1 2116 2 2 1 12
"1380" 1380 3 "b1" 1 1 2 1195 2 1 5 12
"1381" 1381 3 "b1" 1 1 1 1761 2 1 6 12
"1382" 1382 3 "b1" 0 1 2 1104 2 3 5 12
"1383" 1383 3 "b1" 1 0 2 1722 2 2 2 12
"1384" 1384 3 "b1" 1 1 1 1001 2 1 6 12
"1385" 1385 3 "b1" 1 1 2 891 2 1 5 12
"1386" 1386 3 "b1" 0 0 2 1067 2 4 2 12
"1387" 1387 3 "b1" 1 1 1 1077 2 1 6 12
"1388" 1388 3 "b1" 1 0 1 1109 2 2 1 12
"1389" 1389 3 "b1" 1 1 1 872 2 1 6 12
"1390" 1390 3 "b1" 1 0 2 879 2 2 2 12
"1391" 1391 3 "b1" 1 1 1 858 2 1 6 12
"1392" 1392 3 "b1" 1 1 1 732 2 1 6 12
"1393" 1393 3 "b1" 1 0 2 848 2 2 2 12
"1394" 1394 3 "b1" 1 0 2 992 2 2 2 12
"1395" 1395 3 "b1" 0 0 1 1012 2 4 1 12
"1396" 1396 3 "b1" 1 1 1 1136 2 1 6 12
"1397" 1397 3 "b1" 1 1 1 845 2 1 6 12
"1398" 1398 3 "b1" 1 1 1 750 2 1 6 12
"1399" 1399 3 "b1" 1 1 1 2192 2 1 6 12
"1400" 1400 3 "b1" 1 0 2 1002 2 2 2 12
"1401" 1401 3 "b1" 1 1 1 764 1 1 6 12
"1402" 1402 3 "b1" 1 1 1 1256 1 1 6 12
"1403" 1403 3 "b1" 1 0 2 1087 1 2 2 12
"1404" 1404 3 "b1" 1 1 1 757 1 1 6 12
"1405" 1405 3 "b1" 1 1 1 954 1 1 6 12
"1406" 1406 3 "b1" 1 1 1 810 1 1 6 12
"1407" 1407 3 "b1" 1 1 1 886 1 1 6 12
"1408" 1408 3 "b1" 1 0 1 974 1 2 1 12
"1409" 1409 3 "b1" 1 1 1 1427 1 1 6 12
"1410" 1410 3 "b1" 1 1 2 1407 1 1 5 12
"1411" 1411 3 "b1" 1 1 1 1263 1 1 6 12
"1412" 1412 3 "b1" 1 0 2 1019 1 2 2 12
"1413" 1413 3 "b1" 1 0 2 1140 1 2 2 12
"1414" 1414 3 "b1" 1 1 2 1675 1 1 5 12
"1415" 1415 3 "b1" 1 1 2 1089 1 1 5 12
"1416" 1416 3 "b1" 1 1 1 817 1 1 6 12
"1417" 1417 3 "b1" 1 1 1 1205 1 1 6 12
"1418" 1418 3 "b1" 1 1 1 1076 1 1 6 12
"1419" 1419 3 "b1" 1 1 1 905 1 1 6 12
"1420" 1420 3 "b1" 1 1 1 1044 1 1 6 12
"1421" 1421 3 "b1" 1 1 2 1272 1 1 5 12
"1422" 1422 3 "b1" 1 1 1 930 1 1 6 12
"1423" 1423 3 "b1" 1 1 1 983 1 1 6 12
"1424" 1424 3 "b1" 1 1 1 756 1 1 6 12
"1425" 1425 3 "b1" 1 1 2 1052 1 1 5 12
"1426" 1426 3 "b1" 1 1 1 909 1 1 6 12
"1427" 1427 3 "b1" 1 0 2 1494 1 2 2 12
"1428" 1428 3 "b1" 1 0 2 1327 1 2 2 12
"1429" 1429 3 "b1" 1 1 1 867 1 1 6 12
"1430" 1430 3 "b1" 1 0 2 1221 1 2 2 12
"1431" 1431 3 "b1" 1 1 2 1079 1 1 5 12
"1432" 1432 3 "b1" 1 1 1 1195 1 1 6 12
"1433" 1433 3 "b1" 1 1 1 1970 1 1 6 12
"1434" 1434 3 "b1" 1 0 2 1835 1 2 2 12
"1435" 1435 3 "b1" 1 1 1 823 1 1 6 12
"1436" 1436 3 "b1" 0 0 2 1623 1 4 2 12
"1437" 1437 3 "b1" 1 0 2 1282 1 2 2 12
"1438" 1438 3 "b1" 0 0 1 1046 1 4 1 12
"1439" 1439 3 "b1" 1 0 1 1182 1 2 1 12
"1440" 1440 3 "b1" 1 1 1 1226 1 1 6 12
"1441" 1441 3 "b1" 0 1 3 950 1 3 4 12
"1442" 1442 3 "b1" 0 0 2 1381 1 4 2 12
"1443" 1443 3 "b1" 0 0 1 1124 1 4 1 12
"1444" 1444 3 "b1" 0 0 1 978 1 4 1 12
"1445" 1445 3 "b1" 1 1 2 1157 1 1 5 12
"1446" 1446 3 "b1" 1 1 1 885 1 1 6 12
"1447" 1447 3 "b1" 1 0 2 1041 1 2 2 12
"1448" 1448 3 "b1" 1 1 1 1010 1 1 6 12
"1449" 1449 3 "b1" 1 0 2 2207 1 2 2 12
"1450" 1450 3 "b1" 1 1 1 969 1 1 6 12
"1451" 1451 3 "b1" 1 1 1 754 1 1 6 12
"1452" 1452 3 "b1" 1 1 1 1243 1 1 6 12
"1453" 1453 3 "b1" 1 1 1 913 1 1 6 12
"1454" 1454 3 "b1" 0 0 2 1097 1 4 2 12
"1455" 1455 3 "b1" 1 1 1 1057 1 1 6 12
"1456" 1456 3 "b1" 1 1 1 933 1 1 6 12
"1457" 1457 3 "b1" 1 1 1 808 1 1 6 12
"1458" 1458 3 "b1" 1 0 2 984 1 2 2 12
"1459" 1459 3 "b1" 1 0 1 967 1 2 1 12
"1460" 1460 3 "b1" 1 0 1 948 1 2 1 12
"1461" 1461 3 "b1" 1 1 1 920 1 1 6 12
"1462" 1462 3 "b1" 1 0 1 1033 1 2 1 12
"1463" 1463 3 "b1" 1 1 1 724 1 1 6 12
"1464" 1464 3 "b1" 1 1 2 938 1 1 5 12
"1465" 1465 3 "b1" 1 1 2 859 1 1 5 12
"1466" 1466 3 "b1" 1 0 2 839 1 2 2 12
"1467" 1467 3 "b1" 1 1 1 705 1 1 6 12
"1468" 1468 3 "b1" 1 1 2 1051 1 1 5 12
"1469" 1469 3 "b1" 1 0 2 1217 1 2 2 12
"1470" 1470 3 "b1" 1 1 1 1750 1 1 6 12
"1471" 1471 3 "b1" 1 1 1 3800 1 1 6 12
"1472" 1472 3 "b1" 1 0 2 2184 1 2 2 12
"1473" 1473 3 "b1" 1 1 1 937 1 1 6 12
"1474" 1474 3 "b1" 1 1 1 1119 1 1 6 12
"1475" 1475 3 "b1" 1 1 2 1598 1 1 5 12
"1476" 1476 3 "b1" 0 0 2 1423 1 4 2 12
"1477" 1477 3 "b1" 1 0 2 1631 1 2 2 12
"1478" 1478 3 "b1" 1 1 2 985 1 1 5 12
"1479" 1479 3 "b1" 1 1 1 1555 1 1 6 12
"1480" 1480 3 "b1" 1 0 1 1269 1 2 1 12
"1481" 1481 3 "b1" 0 0 1 1039 1 4 1 12
"1482" 1482 3 "b1" 1 1 1 1638 1 1 6 12
"1483" 1483 3 "b1" 1 1 2 1014 1 1 5 12
"1484" 1484 3 "b1" 0 1 2 972 1 3 5 12
"1485" 1485 3 "b1" 1 1 1 1831 1 1 6 12
"1486" 1486 3 "b1" 0 0 2 1226 1 4 2 12
"1487" 1487 3 "b1" 0 1 2 1195 1 3 5 12
"1488" 1488 3 "b1" 0 0 2 1351 1 4 2 12
"1489" 1489 3 "b1" 1 0 2 812 1 2 2 12
"1490" 1490 3 "b1" 0 0 1 917 1 4 1 12
"1491" 1491 3 "b1" 1 1 2 938 1 1 5 12
"1492" 1492 3 "b1" 1 1 2 929 1 1 5 12
"1493" 1493 3 "b1" 1 1 1 1121 1 1 6 12
"1494" 1494 3 "b1" 0 0 2 969 1 4 2 12
"1495" 1495 3 "b1" 1 0 2 1102 1 2 2 12
"1496" 1496 3 "b1" 1 0 2 909 1 2 2 12
"1497" 1497 3 "b1" 1 0 1 877 1 2 1 12
"1498" 1498 3 "b1" 1 1 2 2364 1 1 5 12
"1499" 1499 3 "b1" 1 1 1 1088 1 1 6 12
"1500" 1500 3 "b1" 1 1 1 936 1 1 6 12
"1501" 1501 4 "b2" 0 1 2 1397 5 3 5 45
"1502" 1502 4 "b2" 0 0 1 1425 5 4 1 45
"1503" 1503 4 "b2" 0 0 1 1785 5 4 1 45
"1504" 1504 4 "b2" 0 1 1 1551 5 3 6 45
"1505" 1505 4 "b2" 0 0 1 1544 5 4 1 45
"1506" 1506 4 "b2" 0 0 2 3636 5 4 2 45
"1507" 1507 4 "b2" 0 0 2 1967 5 4 2 45
"1508" 1508 4 "b2" 0 0 1 2044 5 4 1 45
"1509" 1509 4 "b2" 0 1 1 1591 5 3 6 45
"1510" 1510 4 "b2" 0 0 1 1249 5 4 1 45
"1511" 1511 4 "b2" 0 0 2 4449 5 4 2 45
"1512" 1512 4 "b2" 0 0 1 1437 5 4 1 45
"1513" 1513 4 "b2" 1 1 1 962 5 1 6 45
"1514" 1514 4 "b2" 0 0 1 3235 5 4 1 45
"1515" 1515 4 "b2" 0 0 2 1521 5 4 2 45
"1516" 1516 4 "b2" 1 1 1 2441 5 1 6 45
"1517" 1517 4 "b2" 0 0 1 1068 5 4 1 45
"1518" 1518 4 "b2" 0 0 2 3025 5 4 2 45
"1519" 1519 4 "b2" 0 0 1 1199 5 4 1 45
"1520" 1520 4 "b2" 0 0 1 897 5 4 1 45
"1521" 1521 4 "b2" 0 0 1 1535 5 4 1 45
"1522" 1522 4 "b2" 1 1 1 1260 5 1 6 45
"1523" 1523 4 "b2" 0 0 2 2234 5 4 2 45
"1524" 1524 4 "b2" 0 1 1 1521 5 3 6 45
"1525" 1525 4 "b2" 0 0 1 2497 5 4 1 45
"1526" 1526 4 "b2" 0 0 1 840 5 4 1 45
"1527" 1527 4 "b2" 0 0 1 1658 5 4 1 45
"1528" 1528 4 "b2" 0 0 2 3328 5 4 2 45
"1529" 1529 4 "b2" 0 0 1 1298 5 4 1 45
"1530" 1530 4 "b2" 1 1 1 904 5 1 6 45
"1531" 1531 4 "b2" 0 0 1 1130 5 4 1 45
"1532" 1532 4 "b2" 1 0 2 1373 5 2 2 45
"1533" 1533 4 "b2" 0 1 1 1080 5 3 6 45
"1534" 1534 4 "b2" 0 0 2 2750 5 4 2 45
"1535" 1535 4 "b2" 0 0 2 2328 5 4 2 45
"1536" 1536 4 "b2" 0 0 2 3003 5 4 2 45
"1537" 1537 4 "b2" 0 0 2 1451 5 4 2 45
"1538" 1538 4 "b2" 0 0 2 829 5 4 2 45
"1539" 1539 4 "b2" 0 0 1 979 5 4 1 45
"1540" 1540 4 "b2" 0 0 1 755 5 4 1 45
"1541" 1541 4 "b2" 0 0 1 1605 5 4 1 45
"1542" 1542 4 "b2" 0 0 1 1438 5 4 1 45
"1543" 1543 4 "b2" 1 1 1 771 5 1 6 45
"1544" 1544 4 "b2" 0 0 1 768 5 4 1 45
"1545" 1545 4 "b2" 0 0 1 1904 5 4 1 45
"1546" 1546 4 "b2" 0 0 1 987 5 4 1 45
"1547" 1547 4 "b2" 1 0 1 2945 5 2 1 45
"1548" 1548 4 "b2" 0 0 2 1385 5 4 2 45
"1549" 1549 4 "b2" 0 0 1 842 5 4 1 45
"1550" 1550 4 "b2" 0 1 1 1352 5 3 6 45
"1551" 1551 4 "b2" 1 1 1 1688 5 1 6 45
"1552" 1552 4 "b2" 0 0 1 1299 5 4 1 45
"1553" 1553 4 "b2" 0 0 2 2692 5 4 2 45
"1554" 1554 4 "b2" 0 0 1 1436 5 4 1 45
"1555" 1555 4 "b2" 0 0 1 949 5 4 1 45
"1556" 1556 4 "b2" 0 0 1 772 5 4 1 45
"1557" 1557 4 "b2" 0 1 1 1620 5 3 6 45
"1558" 1558 4 "b2" 0 0 1 876 5 4 1 45
"1559" 1559 4 "b2" 0 0 1 719 5 4 1 45
"1560" 1560 4 "b2" 0 0 1 816 5 4 1 45
"1561" 1561 4 "b2" 0 0 1 926 5 4 1 45
"1562" 1562 4 "b2" 0 0 1 942 5 4 1 45
"1563" 1563 4 "b2" 0 0 1 807 5 4 1 45
"1564" 1564 4 "b2" 0 0 1 756 5 4 1 45
"1565" 1565 4 "b2" 0 0 1 691 5 4 1 45
"1566" 1566 4 "b2" 0 0 2 775 5 4 2 45
"1567" 1567 4 "b2" 0 1 3 1621 5 3 4 45
"1568" 1568 4 "b2" 0 0 1 2411 5 4 1 45
"1569" 1569 4 "b2" 1 1 1 1056 5 1 6 45
"1570" 1570 4 "b2" 0 0 1 898 5 4 1 45
"1571" 1571 4 "b2" 0 0 1 3227 5 4 1 45
"1572" 1572 4 "b2" 0 0 1 617 5 4 1 45
"1573" 1573 4 "b2" 0 0 1 664 5 4 1 45
"1574" 1574 4 "b2" 0 0 1 1047 5 4 1 45
"1575" 1575 4 "b2" 0 0 1 1071 5 4 1 45
"1576" 1576 4 "b2" 0 0 1 1020 5 4 1 45
"1577" 1577 4 "b2" 1 1 2 989 5 1 5 45
"1578" 1578 4 "b2" 0 0 1 920 5 4 1 45
"1579" 1579 4 "b2" 0 0 1 876 5 4 1 45
"1580" 1580 4 "b2" 0 0 1 673 5 4 1 45
"1581" 1581 4 "b2" 0 0 1 1007 5 4 1 45
"1582" 1582 4 "b2" 0 0 1 814 5 4 1 45
"1583" 1583 4 "b2" 1 1 1 1087 5 1 6 45
"1584" 1584 4 "b2" 0 0 1 849 5 4 1 45
"1585" 1585 4 "b2" 0 0 1 1188 5 4 1 45
"1586" 1586 4 "b2" 1 1 1 1346 5 1 6 45
"1587" 1587 4 "b2" 0 0 1 899 5 4 1 45
"1588" 1588 4 "b2" 1 1 1 1646 5 1 6 45
"1589" 1589 4 "b2" 0 0 1 691 5 4 1 45
"1590" 1590 4 "b2" 0 0 1 718 5 4 1 45
"1591" 1591 4 "b2" 0 0 1 609 5 4 1 45
"1592" 1592 4 "b2" 0 0 1 653 5 4 1 45
"1593" 1593 4 "b2" 0 0 1 786 5 4 1 45
"1594" 1594 4 "b2" 1 1 1 1978 5 1 6 45
"1595" 1595 4 "b2" 0 0 1 913 5 4 1 45
"1596" 1596 4 "b2" 1 1 1 1748 5 1 6 45
"1597" 1597 4 "b2" 0 0 1 810 5 4 1 45
"1598" 1598 4 "b2" 0 0 2 2296 5 4 2 45
"1599" 1599 4 "b2" 0 0 1 1657 5 4 1 45
"1600" 1600 4 "b2" 0 0 1 761 5 4 1 45
"1601" 1601 4 "b2" 0 0 1 904 4 4 1 45
"1602" 1602 4 "b2" 1 1 1 1030 4 1 6 45
"1603" 1603 4 "b2" 0 0 1 1068 4 4 1 45
"1604" 1604 4 "b2" 1 1 1 883 4 1 6 45
"1605" 1605 4 "b2" 1 1 1 832 4 1 6 45
"1606" 1606 4 "b2" 1 1 1 1361 4 1 6 45
"1607" 1607 4 "b2" 1 0 1 875 4 2 1 45
"1608" 1608 4 "b2" 0 0 1 1390 4 4 1 45
"1609" 1609 4 "b2" 0 0 1 746 4 4 1 45
"1610" 1610 4 "b2" 1 0 1 612 4 2 1 45
"1611" 1611 4 "b2" 1 1 1 850 4 1 6 45
"1612" 1612 4 "b2" 0 1 2 3302 4 3 5 45
"1613" 1613 4 "b2" 0 0 2 1760 4 4 2 45
"1614" 1614 4 "b2" 0 0 1 1033 4 4 1 45
"1615" 1615 4 "b2" 0 1 1 2746 4 3 6 45
"1616" 1616 4 "b2" 0 0 1 1323 4 4 1 45
"1617" 1617 4 "b2" 0 0 1 866 4 4 1 45
"1618" 1618 4 "b2" 1 1 1 1024 4 1 6 45
"1619" 1619 4 "b2" 1 1 1 789 4 1 6 45
"1620" 1620 4 "b2" 0 0 1 735 4 4 1 45
"1621" 1621 4 "b2" 0 0 1 1088 4 4 1 45
"1622" 1622 4 "b2" 1 1 1 909 4 1 6 45
"1623" 1623 4 "b2" 0 0 1 785 4 4 1 45
"1624" 1624 4 "b2" 0 0 1 754 4 4 1 45
"1625" 1625 4 "b2" 1 1 1 757 4 1 6 45
"1626" 1626 4 "b2" 0 0 1 750 4 4 1 45
"1627" 1627 4 "b2" 0 0 1 608 4 4 1 45
"1628" 1628 4 "b2" 1 1 1 1488 4 1 6 45
"1629" 1629 4 "b2" 0 0 1 799 4 4 1 45
"1630" 1630 4 "b2" 1 1 1 943 4 1 6 45
"1631" 1631 4 "b2" 0 0 1 1308 4 4 1 45
"1632" 1632 4 "b2" 0 0 1 865 4 4 1 45
"1633" 1633 4 "b2" 0 0 1 688 4 4 1 45
"1634" 1634 4 "b2" 0 0 1 1838 4 4 1 45
"1635" 1635 4 "b2" 0 0 1 799 4 4 1 45
"1636" 1636 4 "b2" 1 0 1 1529 4 2 1 45
"1637" 1637 4 "b2" 0 0 1 796 4 4 1 45
"1638" 1638 4 "b2" 1 0 1 612 4 2 1 45
"1639" 1639 4 "b2" 0 0 3 1072 4 4 3 45
"1640" 1640 4 "b2" 0 0 1 3541 4 4 1 45
"1641" 1641 4 "b2" 0 0 2 740 4 4 2 45
"1642" 1642 4 "b2" 1 1 1 1223 4 1 6 45
"1643" 1643 4 "b2" 1 1 1 616 4 1 6 45
"1644" 1644 4 "b2" 1 1 1 641 4 1 6 45
"1645" 1645 4 "b2" 0 0 1 818 4 4 1 45
"1646" 1646 4 "b2" 0 0 1 721 4 4 1 45
"1647" 1647 4 "b2" 1 1 1 732 4 1 6 45
"1648" 1648 4 "b2" 1 1 1 881 4 1 6 45
"1649" 1649 4 "b2" 0 0 1 1137 4 4 1 45
"1650" 1650 4 "b2" 1 1 1 771 4 1 6 45
"1651" 1651 4 "b2" 0 0 2 2307 4 4 2 45
"1652" 1652 4 "b2" 1 1 1 957 4 1 6 45
"1653" 1653 4 "b2" 1 1 1 648 4 1 6 45
"1654" 1654 4 "b2" 0 0 1 1424 4 4 1 45
"1655" 1655 4 "b2" 0 0 1 1239 4 4 1 45
"1656" 1656 4 "b2" 1 1 1 1020 4 1 6 45
"1657" 1657 4 "b2" 1 1 1 1499 4 1 6 45
"1658" 1658 4 "b2" 0 0 2 1922 4 4 2 45
"1659" 1659 4 "b2" 0 0 1 1107 4 4 1 45
"1660" 1660 4 "b2" 0 0 1 1452 4 4 1 45
"1661" 1661 4 "b2" 0 0 1 1063 4 4 1 45
"1662" 1662 4 "b2" 0 1 1 875 4 3 6 45
"1663" 1663 4 "b2" 0 0 1 1906 4 4 1 45
"1664" 1664 4 "b2" 0 0 1 882 4 4 1 45
"1665" 1665 4 "b2" 0 0 2 1444 4 4 2 45
"1666" 1666 4 "b2" 1 1 1 762 4 1 6 45
"1667" 1667 4 "b2" 1 1 1 845 4 1 6 45
"1668" 1668 4 "b2" 0 0 1 935 4 4 1 45
"1669" 1669 4 "b2" 0 0 1 990 4 4 1 45
"1670" 1670 4 "b2" 1 1 1 787 4 1 6 45
"1671" 1671 4 "b2" 0 0 1 1076 4 4 1 45
"1672" 1672 4 "b2" 1 1 1 857 4 1 6 45
"1673" 1673 4 "b2" 0 0 1 1257 4 4 1 45
"1674" 1674 4 "b2" 0 0 1 918 4 4 1 45
"1675" 1675 4 "b2" 0 0 1 790 4 4 1 45
"1676" 1676 4 "b2" 0 0 1 1151 4 4 1 45
"1677" 1677 4 "b2" 0 0 1 602 4 4 1 45
"1678" 1678 4 "b2" 0 0 1 601 4 4 1 45
"1679" 1679 4 "b2" 1 1 1 719 4 1 6 45
"1680" 1680 4 "b2" 1 1 1 1086 4 1 6 45
"1681" 1681 4 "b2" 0 0 1 1254 4 4 1 45
"1682" 1682 4 "b2" 0 0 1 1003 4 4 1 45
"1683" 1683 4 "b2" 0 0 1 1393 4 4 1 45
"1684" 1684 4 "b2" 0 0 1 855 4 4 1 45
"1685" 1685 4 "b2" 0 0 1 1189 4 4 1 45
"1686" 1686 4 "b2" 0 0 1 1484 4 4 1 45
"1687" 1687 4 "b2" 0 0 1 819 4 4 1 45
"1688" 1688 4 "b2" 0 0 1 677 4 4 1 45
"1689" 1689 4 "b2" 1 0 1 647 4 2 1 45
"1690" 1690 4 "b2" 1 1 1 729 4 1 6 45
"1691" 1691 4 "b2" 1 0 1 652 4 2 1 45
"1692" 1692 4 "b2" 0 0 1 1449 4 4 1 45
"1693" 1693 4 "b2" 0 0 1 662 4 4 1 45
"1694" 1694 4 "b2" 1 1 1 956 4 1 6 45
"1695" 1695 4 "b2" 0 0 1 695 4 4 1 45
"1696" 1696 4 "b2" 0 0 1 593 4 4 1 45
"1697" 1697 4 "b2" 0 0 1 433 4 4 1 45
"1698" 1698 4 "b2" 0 0 1 577 4 4 1 45
"1699" 1699 4 "b2" 0 0 2 3185 4 4 2 45
"1700" 1700 4 "b2" 0 0 1 1089 4 4 1 45
"1701" 1701 4 "b2" 0 0 1 832 3 4 1 3
"1702" 1702 4 "b2" 0 0 1 655 3 4 1 3
"1703" 1703 4 "b2" 1 0 1 446 3 2 1 3
"1704" 1704 4 "b2" 0 0 1 668 3 4 1 3
"1705" 1705 4 "b2" 0 0 1 584 3 4 1 3
"1706" 1706 4 "b2" 0 0 1 785 3 4 1 3
"1707" 1707 4 "b2" 1 1 1 3208 3 1 6 3
"1708" 1708 4 "b2" 0 0 1 1185 3 4 1 3
"1709" 1709 4 "b2" 1 0 1 1601 3 2 1 3
"1710" 1710 4 "b2" 1 0 2 1169 3 2 2 3
"1711" 1711 4 "b2" 0 0 2 1005 3 4 2 3
"1712" 1712 4 "b2" 0 0 1 700 3 4 1 3
"1713" 1713 4 "b2" 0 0 1 1545 3 4 1 3
"1714" 1714 4 "b2" 1 1 1 2305 3 1 6 3
"1715" 1715 4 "b2" 1 1 1 918 3 1 6 3
"1716" 1716 4 "b2" 1 1 1 954 3 1 6 3
"1717" 1717 4 "b2" 1 1 1 637 3 1 6 3
"1718" 1718 4 "b2" 1 1 1 717 3 1 6 3
"1719" 1719 4 "b2" 0 0 1 962 3 4 1 3
"1720" 1720 4 "b2" 1 1 1 800 3 1 6 3
"1721" 1721 4 "b2" 0 0 1 753 3 4 1 3
"1722" 1722 4 "b2" 1 1 1 729 3 1 6 3
"1723" 1723 4 "b2" 0 0 1 788 3 4 1 3
"1724" 1724 4 "b2" 1 1 1 660 3 1 6 3
"1725" 1725 4 "b2" 1 1 1 827 3 1 6 3
"1726" 1726 4 "b2" 1 0 1 1243 3 2 1 3
"1727" 1727 4 "b2" 1 1 1 1289 3 1 6 3
"1728" 1728 4 "b2" 0 0 1 936 3 4 1 3
"1729" 1729 4 "b2" 1 0 1 796 3 2 1 3
"1730" 1730 4 "b2" 1 1 1 878 3 1 6 3
"1731" 1731 4 "b2" 0 0 2 1461 3 4 2 3
"1732" 1732 4 "b2" 1 1 1 2173 3 1 6 3
"1733" 1733 4 "b2" 0 0 2 918 3 4 2 3
"1734" 1734 4 "b2" 0 0 2 1535 3 4 2 3
"1735" 1735 4 "b2" 0 1 1 1417 3 3 6 3
"1736" 1736 4 "b2" 0 0 2 895 3 4 2 3
"1737" 1737 4 "b2" 0 0 1 1225 3 4 1 3
"1738" 1738 4 "b2" 0 1 1 1134 3 3 6 3
"1739" 1739 4 "b2" 0 0 1 1226 3 4 1 3
"1740" 1740 4 "b2" 0 0 1 1087 3 4 1 3
"1741" 1741 4 "b2" 0 0 1 1132 3 4 1 3
"1742" 1742 4 "b2" 1 1 1 871 3 1 6 3
"1743" 1743 4 "b2" 0 0 1 966 3 4 1 3
"1744" 1744 4 "b2" 0 0 1 728 3 4 1 3
"1745" 1745 4 "b2" 1 1 1 818 3 1 6 3
"1746" 1746 4 "b2" 1 1 1 858 3 1 6 3
"1747" 1747 4 "b2" 1 1 1 649 3 1 6 3
"1748" 1748 4 "b2" 1 1 1 687 3 1 6 3
"1749" 1749 4 "b2" 0 0 1 923 3 4 1 3
"1750" 1750 4 "b2" 0 0 1 605 3 4 1 3
"1751" 1751 4 "b2" 1 1 1 707 3 1 6 3
"1752" 1752 4 "b2" 1 0 2 2145 3 2 2 3
"1753" 1753 4 "b2" 1 1 1 1257 3 1 6 3
"1754" 1754 4 "b2" 0 0 1 879 3 4 1 3
"1755" 1755 4 "b2" 1 1 1 1051 3 1 6 3
"1756" 1756 4 "b2" 0 0 1 707 3 4 1 3
"1757" 1757 4 "b2" 0 0 2 2124 3 4 2 3
"1758" 1758 4 "b2" 0 0 1 2477 3 4 1 3
"1759" 1759 4 "b2" 0 0 1 603 3 4 1 3
"1760" 1760 4 "b2" 1 0 1 693 3 2 1 3
"1761" 1761 4 "b2" 1 1 1 1025 3 1 6 3
"1762" 1762 4 "b2" 1 1 1 930 3 1 6 3
"1763" 1763 4 "b2" 1 1 1 798 3 1 6 3
"1764" 1764 4 "b2" 0 1 3 602 3 3 4 3
"1765" 1765 4 "b2" 1 0 3 3357 3 2 3 3
"1766" 1766 4 "b2" 0 0 1 1298 3 4 1 3
"1767" 1767 4 "b2" 1 1 1 1492 3 1 6 3
"1768" 1768 4 "b2" 0 0 2 1007 3 4 2 3
"1769" 1769 4 "b2" 1 1 1 1297 3 1 6 3
"1770" 1770 4 "b2" 0 0 2 982 3 4 2 3
"1771" 1771 4 "b2" 0 0 1 955 3 4 1 3
"1772" 1772 4 "b2" 0 0 1 1197 3 4 1 3
"1773" 1773 4 "b2" 0 0 1 1450 3 4 1 3
"1774" 1774 4 "b2" 1 1 1 839 3 1 6 3
"1775" 1775 4 "b2" 1 1 1 898 3 1 6 3
"1776" 1776 4 "b2" 0 0 1 694 3 4 1 3
"1777" 1777 4 "b2" 1 1 1 746 3 1 6 3
"1778" 1778 4 "b2" 1 1 1 637 3 1 6 3
"1779" 1779 4 "b2" 1 1 1 805 3 1 6 3
"1780" 1780 4 "b2" 1 1 1 1623 3 1 6 3
"1781" 1781 4 "b2" 1 1 1 720 3 1 6 3
"1782" 1782 4 "b2" 0 0 1 854 3 4 1 3
"1783" 1783 4 "b2" 1 0 1 1067 3 2 1 3
"1784" 1784 4 "b2" 1 0 2 743 3 2 2 3
"1785" 1785 4 "b2" 1 1 1 1100 3 1 6 3
"1786" 1786 4 "b2" 1 1 3 705 3 1 4 3
"1787" 1787 4 "b2" 1 1 1 1054 3 1 6 3
"1788" 1788 4 "b2" 0 1 3 859 3 3 4 3
"1789" 1789 4 "b2" 0 0 1 1766 3 4 1 3
"1790" 1790 4 "b2" 0 0 1 3116 3 4 1 3
"1791" 1791 4 "b2" 1 1 1 910 3 1 6 3
"1792" 1792 4 "b2" 0 0 1 849 3 4 1 3
"1793" 1793 4 "b2" 0 0 1 736 3 4 1 3
"1794" 1794 4 "b2" 0 0 1 4524 3 4 1 3
"1795" 1795 4 "b2" 0 0 1 765 3 4 1 3
"1796" 1796 4 "b2" 0 0 1 784 3 4 1 3
"1797" 1797 4 "b2" 1 1 1 761 3 1 6 3
"1798" 1798 4 "b2" 0 0 1 1018 3 4 1 3
"1799" 1799 4 "b2" 1 1 1 1624 3 1 6 3
"1800" 1800 4 "b2" 1 1 1 657 3 1 6 3
"1801" 1801 4 "b2" 1 1 1 807 2 1 6 12
"1802" 1802 4 "b2" 1 0 2 865 2 2 2 12
"1803" 1803 4 "b2" 1 1 1 840 2 1 6 12
"1804" 1804 4 "b2" 1 1 1 625 2 1 6 12
"1805" 1805 4 "b2" 1 0 2 1626 2 2 2 12
"1806" 1806 4 "b2" 1 1 1 1097 2 1 6 12
"1807" 1807 4 "b2" 1 1 1 720 2 1 6 12
"1808" 1808 4 "b2" 0 0 1 1139 2 4 1 12
"1809" 1809 4 "b2" 1 1 1 747 2 1 6 12
"1810" 1810 4 "b2" 1 1 1 1501 2 1 6 12
"1811" 1811 4 "b2" 1 1 1 710 2 1 6 12
"1812" 1812 4 "b2" 1 1 1 684 2 1 6 12
"1813" 1813 4 "b2" 1 1 1 843 2 1 6 12
"1814" 1814 4 "b2" 0 0 1 938 2 4 1 12
"1815" 1815 4 "b2" 1 1 1 760 2 1 6 12
"1816" 1816 4 "b2" 1 0 2 1242 2 2 2 12
"1817" 1817 4 "b2" 1 1 1 1357 2 1 6 12
"1818" 1818 4 "b2" 0 0 1 823 2 4 1 12
"1819" 1819 4 "b2" 1 1 1 824 2 1 6 12
"1820" 1820 4 "b2" 1 1 1 790 2 1 6 12
"1821" 1821 4 "b2" 0 0 1 1289 2 4 1 12
"1822" 1822 4 "b2" 1 1 1 760 2 1 6 12
"1823" 1823 4 "b2" 1 1 1 746 2 1 6 12
"1824" 1824 4 "b2" 0 0 1 830 2 4 1 12
"1825" 1825 4 "b2" 0 0 1 706 2 4 1 12
"1826" 1826 4 "b2" 1 1 1 1155 2 1 6 12
"1827" 1827 4 "b2" 1 0 1 781 2 2 1 12
"1828" 1828 4 "b2" 1 1 1 941 2 1 6 12
"1829" 1829 4 "b2" 0 0 1 769 2 4 1 12
"1830" 1830 4 "b2" 1 0 1 1619 2 2 1 12
"1831" 1831 4 "b2" 1 1 1 771 2 1 6 12
"1832" 1832 4 "b2" 1 1 1 654 2 1 6 12
"1833" 1833 4 "b2" 1 1 1 1304 2 1 6 12
"1834" 1834 4 "b2" 1 1 1 887 2 1 6 12
"1835" 1835 4 "b2" 0 0 1 847 2 4 1 12
"1836" 1836 4 "b2" 0 0 1 723 2 4 1 12
"1837" 1837 4 "b2" 0 0 1 1439 2 4 1 12
"1838" 1838 4 "b2" 1 1 1 938 2 1 6 12
"1839" 1839 4 "b2" 0 0 1 1020 2 4 1 12
"1840" 1840 4 "b2" 0 0 1 1099 2 4 1 12
"1841" 1841 4 "b2" 1 1 1 654 2 1 6 12
"1842" 1842 4 "b2" 1 0 1 829 2 2 1 12
"1843" 1843 4 "b2" 1 1 1 8411 2 1 6 12
"1844" 1844 4 "b2" 1 1 1 803 2 1 6 12
"1845" 1845 4 "b2" 0 0 1 783 2 4 1 12
"1846" 1846 4 "b2" 1 1 1 673 2 1 6 12
"1847" 1847 4 "b2" 1 1 1 911 2 1 6 12
"1848" 1848 4 "b2" 1 1 1 679 2 1 6 12
"1849" 1849 4 "b2" 1 0 1 799 2 2 1 12
"1850" 1850 4 "b2" 0 0 1 730 2 4 1 12
"1851" 1851 4 "b2" 1 1 1 985 2 1 6 12
"1852" 1852 4 "b2" 1 1 1 986 2 1 6 12
"1853" 1853 4 "b2" 1 1 1 657 2 1 6 12
"1854" 1854 4 "b2" 1 1 1 722 2 1 6 12
"1855" 1855 4 "b2" 1 1 1 721 2 1 6 12
"1856" 1856 4 "b2" 0 1 1 584 2 3 6 12
"1857" 1857 4 "b2" 0 0 1 2203 2 4 1 12
"1858" 1858 4 "b2" 1 1 2 2012 2 1 5 12
"1859" 1859 4 "b2" 1 1 1 791 2 1 6 12
"1860" 1860 4 "b2" 0 0 1 964 2 4 1 12
"1861" 1861 4 "b2" 0 0 1 2083 2 4 1 12
"1862" 1862 4 "b2" 0 0 1 1321 2 4 1 12
"1863" 1863 4 "b2" 0 0 1 798 2 4 1 12
"1864" 1864 4 "b2" 0 0 1 884 2 4 1 12
"1865" 1865 4 "b2" 1 1 1 1240 2 1 6 12
"1866" 1866 4 "b2" 1 1 1 1289 2 1 6 12
"1867" 1867 4 "b2" 1 1 1 745 2 1 6 12
"1868" 1868 4 "b2" 1 1 1 590 2 1 6 12
"1869" 1869 4 "b2" 1 1 3 1554 2 1 4 12
"1870" 1870 4 "b2" 0 1 3 920 2 3 4 12
"1871" 1871 4 "b2" 1 1 1 1504 2 1 6 12
"1872" 1872 4 "b2" 0 0 1 943 2 4 1 12
"1873" 1873 4 "b2" 1 0 1 777 2 2 1 12
"1874" 1874 4 "b2" 1 0 1 2066 2 2 1 12
"1875" 1875 4 "b2" 1 1 1 1415 2 1 6 12
"1876" 1876 4 "b2" 1 0 2 2109 2 2 2 12
"1877" 1877 4 "b2" 0 0 3 1401 2 4 3 12
"1878" 1878 4 "b2" 0 0 1 3118 2 4 1 12
"1879" 1879 4 "b2" 1 0 1 1277 2 2 1 12
"1880" 1880 4 "b2" 0 0 1 997 2 4 1 12
"1881" 1881 4 "b2" 1 1 1 970 2 1 6 12
"1882" 1882 4 "b2" 0 0 1 2292 2 4 1 12
"1883" 1883 4 "b2" 0 0 1 1017 2 4 1 12
"1884" 1884 4 "b2" 0 0 1 720 2 4 1 12
"1885" 1885 4 "b2" 0 0 1 1028 2 4 1 12
"1886" 1886 4 "b2" 0 0 1 621 2 4 1 12
"1887" 1887 4 "b2" 1 1 1 1068 2 1 6 12
"1888" 1888 4 "b2" 1 1 1 911 2 1 6 12
"1889" 1889 4 "b2" 1 1 2 3031 2 1 5 12
"1890" 1890 4 "b2" 0 0 1 803 2 4 1 12
"1891" 1891 4 "b2" 1 0 1 2257 2 2 1 12
"1892" 1892 4 "b2" 1 1 1 1520 2 1 6 12
"1893" 1893 4 "b2" 1 0 1 1548 2 2 1 12
"1894" 1894 4 "b2" 1 1 1 874 2 1 6 12
"1895" 1895 4 "b2" 1 1 3 710 2 1 4 12
"1896" 1896 4 "b2" 0 0 2 1214 2 4 2 12
"1897" 1897 4 "b2" 0 0 1 766 2 4 1 12
"1898" 1898 4 "b2" 0 0 1 1699 2 4 1 12
"1899" 1899 4 "b2" 1 1 1 1345 2 1 6 12
"1900" 1900 4 "b2" 1 1 1 748 2 1 6 12
"1901" 1901 4 "b2" 1 0 1 1396 1 2 1 12
"1902" 1902 4 "b2" 1 1 1 1396 1 1 6 12
"1903" 1903 4 "b2" 1 1 1 790 1 1 6 12
"1904" 1904 4 "b2" 1 0 1 1170 1 2 1 12
"1905" 1905 4 "b2" 1 0 1 732 1 2 1 12
"1906" 1906 4 "b2" 1 1 1 1577 1 1 6 12
"1907" 1907 4 "b2" 1 1 1 1488 1 1 6 12
"1908" 1908 4 "b2" 0 0 2 1102 1 4 2 12
"1909" 1909 4 "b2" 1 0 2 3889 1 2 2 12
"1910" 1910 4 "b2" 1 1 1 999 1 1 6 12
"1911" 1911 4 "b2" 1 1 1 1401 1 1 6 12
"1912" 1912 4 "b2" 1 1 1 812 1 1 6 12
"1913" 1913 4 "b2" 1 1 1 648 1 1 6 12
"1914" 1914 4 "b2" 1 1 1 594 1 1 6 12
"1915" 1915 4 "b2" 1 1 1 775 1 1 6 12
"1916" 1916 4 "b2" 1 1 1 547 1 1 6 12
"1917" 1917 4 "b2" 1 1 1 496 1 1 6 12
"1918" 1918 4 "b2" 1 1 1 1118 1 1 6 12
"1919" 1919 4 "b2" 1 1 1 877 1 1 6 12
"1920" 1920 4 "b2" 1 1 2 1583 1 1 5 12
"1921" 1921 4 "b2" 1 1 3 663 1 1 4 12
"1922" 1922 4 "b2" 1 0 2 1416 1 2 2 12
"1923" 1923 4 "b2" 1 1 1 665 1 1 6 12
"1924" 1924 4 "b2" 1 1 1 1427 1 1 6 12
"1925" 1925 4 "b2" 1 1 1 587 1 1 6 12
"1926" 1926 4 "b2" 1 1 1 753 1 1 6 12
"1927" 1927 4 "b2" 1 0 2 2637 1 2 2 12
"1928" 1928 4 "b2" 1 1 2 2090 1 1 5 12
"1929" 1929 4 "b2" 0 0 1 805 1 4 1 12
"1930" 1930 4 "b2" 1 1 2 2934 1 1 5 12
"1931" 1931 4 "b2" 1 1 1 647 1 1 6 12
"1932" 1932 4 "b2" 0 1 1 532 1 3 6 12
"1933" 1933 4 "b2" 1 1 1 878 1 1 6 12
"1934" 1934 4 "b2" 0 1 2 1002 1 3 5 12
"1935" 1935 4 "b2" 1 1 1 1016 1 1 6 12
"1936" 1936 4 "b2" 1 1 2 1777 1 1 5 12
"1937" 1937 4 "b2" 1 0 1 1101 1 2 1 12
"1938" 1938 4 "b2" 0 0 1 1107 1 4 1 12
"1939" 1939 4 "b2" 0 0 3 781 1 4 3 12
"1940" 1940 4 "b2" 1 1 1 949 1 1 6 12
"1941" 1941 4 "b2" 1 1 1 721 1 1 6 12
"1942" 1942 4 "b2" 1 0 1 1328 1 2 1 12
"1943" 1943 4 "b2" 1 1 1 1144 1 1 6 12
"1944" 1944 4 "b2" 1 0 2 1486 1 2 2 12
"1945" 1945 4 "b2" 0 0 2 1007 1 4 2 12
"1946" 1946 4 "b2" 1 0 1 674 1 2 1 12
"1947" 1947 4 "b2" 1 1 1 951 1 1 6 12
"1948" 1948 4 "b2" 1 1 1 667 1 1 6 12
"1949" 1949 4 "b2" 1 0 1 1091 1 2 1 12
"1950" 1950 4 "b2" 1 1 2 647 1 1 5 12
"1951" 1951 4 "b2" 1 0 2 1241 1 2 2 12
"1952" 1952 4 "b2" 1 1 1 722 1 1 6 12
"1953" 1953 4 "b2" 1 1 1 744 1 1 6 12
"1954" 1954 4 "b2" 1 1 1 1383 1 1 6 12
"1955" 1955 4 "b2" 1 1 1 626 1 1 6 12
"1956" 1956 4 "b2" 1 1 1 1007 1 1 6 12
"1957" 1957 4 "b2" 1 0 1 1260 1 2 1 12
"1958" 1958 4 "b2" 0 0 1 856 1 4 1 12
"1959" 1959 4 "b2" 1 1 1 1003 1 1 6 12
"1960" 1960 4 "b2" 1 1 1 777 1 1 6 12
"1961" 1961 4 "b2" 1 1 1 893 1 1 6 12
"1962" 1962 4 "b2" 0 0 2 1261 1 4 2 12
"1963" 1963 4 "b2" 0 0 1 979 1 4 1 12
"1964" 1964 4 "b2" 1 1 1 664 1 1 6 12
"1965" 1965 4 "b2" 1 1 1 932 1 1 6 12
"1966" 1966 4 "b2" 1 1 1 733 1 1 6 12
"1967" 1967 4 "b2" 1 1 1 1158 1 1 6 12
"1968" 1968 4 "b2" 1 1 1 870 1 1 6 12
"1969" 1969 4 "b2" 1 1 1 722 1 1 6 12
"1970" 1970 4 "b2" 1 1 1 1361 1 1 6 12
"1971" 1971 4 "b2" 1 1 2 2078 1 1 5 12
"1972" 1972 4 "b2" 1 1 1 1192 1 1 6 12
"1973" 1973 4 "b2" 0 0 2 1786 1 4 2 12
"1974" 1974 4 "b2" 1 1 1 665 1 1 6 12
"1975" 1975 4 "b2" 1 1 1 1235 1 1 6 12
"1976" 1976 4 "b2" 0 0 1 1111 1 4 1 12
"1977" 1977 4 "b2" 1 1 1 715 1 1 6 12
"1978" 1978 4 "b2" 1 1 1 714 1 1 6 12
"1979" 1979 4 "b2" 1 1 2 1467 1 1 5 12
"1980" 1980 4 "b2" 1 1 1 706 1 1 6 12
"1981" 1981 4 "b2" 1 0 2 824 1 2 2 12
"1982" 1982 4 "b2" 1 1 1 679 1 1 6 12
"1983" 1983 4 "b2" 1 1 1 663 1 1 6 12
"1984" 1984 4 "b2" 1 1 1 1040 1 1 6 12
"1985" 1985 4 "b2" 1 1 1 1562 1 1 6 12
"1986" 1986 4 "b2" 1 1 1 601 1 1 6 12
"1987" 1987 4 "b2" 1 1 1 789 1 1 6 12
"1988" 1988 4 "b2" 1 1 1 794 1 1 6 12
"1989" 1989 4 "b2" 1 1 1 1182 1 1 6 12
"1990" 1990 4 "b2" 1 1 1 595 1 1 6 12
"1991" 1991 4 "b2" 1 1 1 1675 1 1 6 12
"1992" 1992 4 "b2" 1 1 1 579 1 1 6 12
"1993" 1993 4 "b2" 1 0 2 1087 1 2 2 12
"1994" 1994 4 "b2" 1 1 1 622 1 1 6 12
"1995" 1995 4 "b2" 0 1 3 505 1 3 4 12
"1996" 1996 4 "b2" 0 0 1 1416 1 4 1 12
"1997" 1997 4 "b2" 1 1 1 754 1 1 6 12
"1998" 1998 4 "b2" 1 1 1 495 1 1 6 12
"1999" 1999 4 "b2" 1 0 2 1376 1 2 2 12
"2000" 2000 4 "b2" 0 0 1 1296 1 4 1 12
"2001" 2001 5 "a2" 1 0 1 110663 1 2 1 12
"2002" 2002 5 "a2" 1 1 1 2805 1 1 6 12
"2003" 2003 5 "a2" 1 1 2 2962 1 1 5 12
"2004" 2004 5 "a2" 1 1 1 1542 1 1 6 12
"2005" 2005 5 "a2" 0 0 2 2448 1 4 2 12
"2006" 2006 5 "a2" 1 0 2 2665 1 2 2 12
"2007" 2007 5 "a2" 1 1 2 1964 1 1 5 12
"2008" 2008 5 "a2" 1 1 1 1399 1 1 6 12
"2009" 2009 5 "a2" 1 0 1 2494 1 2 1 12
"2010" 2010 5 "a2" 1 1 1 1366 1 1 6 12
"2011" 2011 5 "a2" 1 1 2 1248 1 1 5 12
"2012" 2012 5 "a2" 0 1 2 1509 1 3 5 12
"2013" 2013 5 "a2" 1 1 1 1315 1 1 6 12
"2014" 2014 5 "a2" 1 0 2 1925 1 2 2 12
"2015" 2015 5 "a2" 1 1 1 2127 1 1 6 12
"2016" 2016 5 "a2" 1 0 2 2828 1 2 2 12
"2017" 2017 5 "a2" 1 1 1 1314 1 1 6 12
"2018" 2018 5 "a2" 1 1 1 1375 1 1 6 12
"2019" 2019 5 "a2" 1 1 1 1169 1 1 6 12
"2020" 2020 5 "a2" 1 1 2 1450 1 1 5 12
"2021" 2021 5 "a2" 1 1 1 1289 1 1 6 12
"2022" 2022 5 "a2" 1 1 2 1288 1 1 5 12
"2023" 2023 5 "a2" 1 1 1 1243 1 1 6 12
"2024" 2024 5 "a2" 1 1 2 1543 1 1 5 12
"2025" 2025 5 "a2" 1 1 2 1163 1 1 5 12
"2026" 2026 5 "a2" 1 0 2 1364 1 2 2 12
"2027" 2027 5 "a2" 1 1 2 1358 1 1 5 12
"2028" 2028 5 "a2" 0 1 2 1377 1 3 5 12
"2029" 2029 5 "a2" 1 1 1 1130 1 1 6 12
"2030" 2030 5 "a2" 1 1 1 1023 1 1 6 12
"2031" 2031 5 "a2" 1 0 2 2202 1 2 2 12
"2032" 2032 5 "a2" 1 1 1 1208 1 1 6 12
"2033" 2033 5 "a2" 1 1 1 915 1 1 6 12
"2034" 2034 5 "a2" 1 1 2 2620 1 1 5 12
"2035" 2035 5 "a2" 1 1 1 1117 1 1 6 12
"2036" 2036 5 "a2" 1 1 1 625 1 1 6 12
"2037" 2037 5 "a2" 1 1 1 677 1 1 6 12
"2038" 2038 5 "a2" 1 1 1 857 1 1 6 12
"2039" 2039 5 "a2" 1 1 2 1056 1 1 5 12
"2040" 2040 5 "a2" 0 0 2 1866 1 4 2 12
"2041" 2041 5 "a2" 1 0 2 1834 1 2 2 12
"2042" 2042 5 "a2" 1 1 1 1260 1 1 6 12
"2043" 2043 5 "a2" 1 1 1 594 1 1 6 12
"2044" 2044 5 "a2" 1 1 1 945 1 1 6 12
"2045" 2045 5 "a2" 0 0 2 1890 1 4 2 12
"2046" 2046 5 "a2" 0 0 2 3507 1 4 2 12
"2047" 2047 5 "a2" 0 1 2 1541 1 3 5 12
"2048" 2048 5 "a2" 1 0 2 1960 1 2 2 12
"2049" 2049 5 "a2" 1 1 2 1124 1 1 5 12
"2050" 2050 5 "a2" 1 1 2 955 1 1 5 12
"2051" 2051 5 "a2" 1 0 2 1392 1 2 2 12
"2052" 2052 5 "a2" 0 1 2 1074 1 3 5 12
"2053" 2053 5 "a2" 1 1 1 1097 1 1 6 12
"2054" 2054 5 "a2" 1 1 1 606 1 1 6 12
"2055" 2055 5 "a2" 0 0 2 1761 1 4 2 12
"2056" 2056 5 "a2" 1 1 2 1223 1 1 5 12
"2057" 2057 5 "a2" 1 0 2 1433 1 2 2 12
"2058" 2058 5 "a2" 1 1 2 1569 1 1 5 12
"2059" 2059 5 "a2" 1 1 2 985 1 1 5 12
"2060" 2060 5 "a2" 0 1 3 710 1 3 4 12
"2061" 2061 5 "a2" 1 0 2 1403 1 2 2 12
"2062" 2062 5 "a2" 1 1 2 1131 1 1 5 12
"2063" 2063 5 "a2" 1 0 2 1955 1 2 2 12
"2064" 2064 5 "a2" 1 1 2 1435 1 1 5 12
"2065" 2065 5 "a2" 1 1 2 740 1 1 5 12
"2066" 2066 5 "a2" 0 0 3 2423 1 4 3 12
"2067" 2067 5 "a2" 1 0 3 2818 1 2 3 12
"2068" 2068 5 "a2" 1 1 2 2041 1 1 5 12
"2069" 2069 5 "a2" 0 1 2 952 1 3 5 12
"2070" 2070 5 "a2" 1 1 2 763 1 1 5 12
"2071" 2071 5 "a2" 1 1 3 2140 1 1 4 12
"2072" 2072 5 "a2" 1 1 2 2423 1 1 5 12
"2073" 2073 5 "a2" 1 1 2 801 1 1 5 12
"2074" 2074 5 "a2" 1 1 1 3185 1 1 6 12
"2075" 2075 5 "a2" 1 1 1 1138 1 1 6 12
"2076" 2076 5 "a2" 1 1 1 777 1 1 6 12
"2077" 2077 5 "a2" 1 1 1 691 1 1 6 12
"2078" 2078 5 "a2" 1 1 1 584 1 1 6 12
"2079" 2079 5 "a2" 1 1 1 754 1 1 6 12
"2080" 2080 5 "a2" 1 1 1 603 1 1 6 12
"2081" 2081 5 "a2" 1 1 1 691 1 1 6 12
"2082" 2082 5 "a2" 1 1 2 1803 1 1 5 12
"2083" 2083 5 "a2" 1 1 1 981 1 1 6 12
"2084" 2084 5 "a2" 1 0 3 1598 1 2 3 12
"2085" 2085 5 "a2" 0 1 2 1417 1 3 5 12
"2086" 2086 5 "a2" 1 1 2 972 1 1 5 12
"2087" 2087 5 "a2" 1 0 2 1843 1 2 2 12
"2088" 2088 5 "a2" 1 1 2 998 1 1 5 12
"2089" 2089 5 "a2" 1 1 2 936 1 1 5 12
"2090" 2090 5 "a2" 0 1 2 628 1 3 5 12
"2091" 2091 5 "a2" 1 1 1 952 1 1 6 12
"2092" 2092 5 "a2" 1 1 1 821 1 1 6 12
"2093" 2093 5 "a2" 1 1 1 629 1 1 6 12
"2094" 2094 5 "a2" 1 1 1 633 1 1 6 12
"2095" 2095 5 "a2" 1 1 1 990 1 1 6 12
"2096" 2096 5 "a2" 1 0 3 1702 1 2 3 12
"2097" 2097 5 "a2" 1 1 2 1387 1 1 5 12
"2098" 2098 5 "a2" 1 0 2 2073 1 2 2 12
"2099" 2099 5 "a2" 0 1 2 1217 1 3 5 12
"2100" 2100 5 "a2" 1 1 1 844 1 1 6 12
"2101" 2101 5 "a2" 1 1 1 2700 2 1 6 12
"2102" 2102 5 "a2" 1 1 1 1118 2 1 6 12
"2103" 2103 5 "a2" 0 1 1 1467 2 3 6 12
"2104" 2104 5 "a2" 1 1 1 675 2 1 6 12
"2105" 2105 5 "a2" 1 0 3 2054 2 2 3 12
"2106" 2106 5 "a2" 1 1 2 1369 2 1 5 12
"2107" 2107 5 "a2" 1 1 1 644 2 1 6 12
"2108" 2108 5 "a2" 0 1 2 1478 2 3 5 12
"2109" 2109 5 "a2" 0 0 2 1803 2 4 2 12
"2110" 2110 5 "a2" 1 0 2 943 2 2 2 12
"2111" 2111 5 "a2" 0 0 2 1294 2 4 2 12
"2112" 2112 5 "a2" 1 0 2 1088 2 2 2 12
"2113" 2113 5 "a2" 1 1 1 1020 2 1 6 12
"2114" 2114 5 "a2" 0 1 1 1335 2 3 6 12
"2115" 2115 5 "a2" 1 1 1 1151 2 1 6 12
"2116" 2116 5 "a2" 0 0 2 1763 2 4 2 12
"2117" 2117 5 "a2" 0 0 1 1513 2 4 1 12
"2118" 2118 5 "a2" 1 1 2 1818 2 1 5 12
"2119" 2119 5 "a2" 1 1 2 1431 2 1 5 12
"2120" 2120 5 "a2" 0 0 2 1318 2 4 2 12
"2121" 2121 5 "a2" 1 1 1 945 2 1 6 12
"2122" 2122 5 "a2" 1 0 2 1556 2 2 2 12
"2123" 2123 5 "a2" 1 0 2 1462 2 2 2 12
"2124" 2124 5 "a2" 0 1 1 703 2 3 6 12
"2125" 2125 5 "a2" 1 1 1 1577 2 1 6 12
"2126" 2126 5 "a2" 1 0 2 1701 2 2 2 12
"2127" 2127 5 "a2" 1 0 2 1052 2 2 2 12
"2128" 2128 5 "a2" 0 1 1 752 2 3 6 12
"2129" 2129 5 "a2" 1 0 2 2078 2 2 2 12
"2130" 2130 5 "a2" 0 1 1 834 2 3 6 12
"2131" 2131 5 "a2" 0 0 2 1160 2 4 2 12
"2132" 2132 5 "a2" 1 0 2 1056 2 2 2 12
"2133" 2133 5 "a2" 1 1 1 796 2 1 6 12
"2134" 2134 5 "a2" 1 1 1 989 2 1 6 12
"2135" 2135 5 "a2" 1 1 1 679 2 1 6 12
"2136" 2136 5 "a2" 1 1 2 934 2 1 5 12
"2137" 2137 5 "a2" 1 1 1 1321 2 1 6 12
"2138" 2138 5 "a2" 1 1 1 870 2 1 6 12
"2139" 2139 5 "a2" 1 1 1 932 2 1 6 12
"2140" 2140 5 "a2" 0 0 2 945 2 4 2 12
"2141" 2141 5 "a2" 0 0 2 949 2 4 2 12
"2142" 2142 5 "a2" 1 1 1 938 2 1 6 12
"2143" 2143 5 "a2" 1 1 1 1017 2 1 6 12
"2144" 2144 5 "a2" 1 1 1 892 2 1 6 12
"2145" 2145 5 "a2" 0 0 2 778 2 4 2 12
"2146" 2146 5 "a2" 0 0 2 952 2 4 2 12
"2147" 2147 5 "a2" 1 1 1 1099 2 1 6 12
"2148" 2148 5 "a2" 1 1 1 1059 2 1 6 12
"2149" 2149 5 "a2" 0 0 2 1437 2 4 2 12
"2150" 2150 5 "a2" 1 1 1 663 2 1 6 12
"2151" 2151 5 "a2" 0 1 2 816 2 3 5 12
"2152" 2152 5 "a2" 1 0 2 1395 2 2 2 12
"2153" 2153 5 "a2" 1 1 1 1064 2 1 6 12
"2154" 2154 5 "a2" 1 0 2 1289 2 2 2 12
"2155" 2155 5 "a2" 1 1 2 859 2 1 5 12
"2156" 2156 5 "a2" 1 1 1 1024 2 1 6 12
"2157" 2157 5 "a2" 1 1 1 745 2 1 6 12
"2158" 2158 5 "a2" 0 1 1 988 2 3 6 12
"2159" 2159 5 "a2" 1 1 2 808 2 1 5 12
"2160" 2160 5 "a2" 1 1 2 1921 2 1 5 12
"2161" 2161 5 "a2" 0 0 2 1728 2 4 2 12
"2162" 2162 5 "a2" 0 1 2 1560 2 3 5 12
"2163" 2163 5 "a2" 1 0 2 947 2 2 2 12
"2164" 2164 5 "a2" 1 1 1 734 2 1 6 12
"2165" 2165 5 "a2" 1 0 2 945 2 2 2 12
"2166" 2166 5 "a2" 1 1 1 702 2 1 6 12
"2167" 2167 5 "a2" 0 0 2 1021 2 4 2 12
"2168" 2168 5 "a2" 0 1 1 992 2 3 6 12
"2169" 2169 5 "a2" 1 0 2 717 2 2 2 12
"2170" 2170 5 "a2" 1 1 2 1760 2 1 5 12
"2171" 2171 5 "a2" 1 1 2 1194 2 1 5 12
"2172" 2172 5 "a2" 1 1 1 858 2 1 6 12
"2173" 2173 5 "a2" 0 0 2 2361 2 4 2 12
"2174" 2174 5 "a2" 1 0 2 1025 2 2 2 12
"2175" 2175 5 "a2" 1 1 1 841 2 1 6 12
"2176" 2176 5 "a2" 1 1 2 955 2 1 5 12
"2177" 2177 5 "a2" 1 1 2 639 2 1 5 12
"2178" 2178 5 "a2" 0 1 1 1062 2 3 6 12
"2179" 2179 5 "a2" 1 1 1 844 2 1 6 12
"2180" 2180 5 "a2" 0 0 2 1214 2 4 2 12
"2181" 2181 5 "a2" 1 1 1 982 2 1 6 12
"2182" 2182 5 "a2" 0 1 2 1615 2 3 5 12
"2183" 2183 5 "a2" 0 0 1 1218 2 4 1 12
"2184" 2184 5 "a2" 0 0 1 823 2 4 1 12
"2185" 2185 5 "a2" 1 1 2 1414 2 1 5 12
"2186" 2186 5 "a2" 1 0 2 1212 2 2 2 12
"2187" 2187 5 "a2" 1 0 2 1123 2 2 2 12
"2188" 2188 5 "a2" 1 1 1 750 2 1 6 12
"2189" 2189 5 "a2" 0 0 2 1046 2 4 2 12
"2190" 2190 5 "a2" 1 0 2 1004 2 2 2 12
"2191" 2191 5 "a2" 0 0 2 2015 2 4 2 12
"2192" 2192 5 "a2" 0 0 2 1077 2 4 2 12
"2193" 2193 5 "a2" 0 0 2 1065 2 4 2 12
"2194" 2194 5 "a2" 1 1 1 1054 2 1 6 12
"2195" 2195 5 "a2" 1 1 1 689 2 1 6 12
"2196" 2196 5 "a2" 0 0 2 983 2 4 2 12
"2197" 2197 5 "a2" 0 1 1 2130 2 3 6 12
"2198" 2198 5 "a2" 1 0 2 1251 2 2 2 12
"2199" 2199 5 "a2" 1 0 2 1520 2 2 2 12
"2200" 2200 5 "a2" 1 1 1 771 2 1 6 12
"2201" 2201 5 "a2" 0 0 2 1037 3 4 2 3
"2202" 2202 5 "a2" 1 1 1 828 3 1 6 3
"2203" 2203 5 "a2" 0 0 2 658 3 4 2 3
"2204" 2204 5 "a2" 1 0 2 794 3 2 2 3
"2205" 2205 5 "a2" 1 0 2 1820 3 2 2 3
"2206" 2206 5 "a2" 0 0 2 1044 3 4 2 3
"2207" 2207 5 "a2" 1 0 2 1135 3 2 2 3
"2208" 2208 5 "a2" 1 1 1 719 3 1 6 3
"2209" 2209 5 "a2" 0 1 1 1138 3 3 6 3
"2210" 2210 5 "a2" 1 0 2 1016 3 2 2 3
"2211" 2211 5 "a2" 0 1 1 1820 3 3 6 3
"2212" 2212 5 "a2" 1 0 2 1252 3 2 2 3
"2213" 2213 5 "a2" 1 1 1 3233 3 1 6 3
"2214" 2214 5 "a2" 0 1 2 791 3 3 5 3
"2215" 2215 5 "a2" 0 0 2 1294 3 4 2 3
"2216" 2216 5 "a2" 0 1 2 1546 3 3 5 3
"2217" 2217 5 "a2" 0 1 1 992 3 3 6 3
"2218" 2218 5 "a2" 1 0 2 456 3 2 2 3
"2219" 2219 5 "a2" 0 0 2 1369 3 4 2 3
"2220" 2220 5 "a2" 0 1 1 1434 3 3 6 3
"2221" 2221 5 "a2" 0 0 2 1620 3 4 2 3
"2222" 2222 5 "a2" 0 1 2 973 3 3 5 3
"2223" 2223 5 "a2" 0 1 2 1404 3 3 5 3
"2224" 2224 5 "a2" 1 1 2 1753 3 1 5 3
"2225" 2225 5 "a2" 0 1 2 808 3 3 5 3
"2226" 2226 5 "a2" 0 0 1 1324 3 4 1 3
"2227" 2227 5 "a2" 0 0 2 1894 3 4 2 3
"2228" 2228 5 "a2" 1 1 1 889 3 1 6 3
"2229" 2229 5 "a2" 1 0 2 1843 3 2 2 3
"2230" 2230 5 "a2" 1 0 2 1219 3 2 2 3
"2231" 2231 5 "a2" 0 0 2 1153 3 4 2 3
"2232" 2232 5 "a2" 0 0 2 902 3 4 2 3
"2233" 2233 5 "a2" 0 1 1 1893 3 3 6 3
"2234" 2234 5 "a2" 1 0 2 780 3 2 2 3
"2235" 2235 5 "a2" 0 0 2 960 3 4 2 3
"2236" 2236 5 "a2" 1 0 2 939 3 2 2 3
"2237" 2237 5 "a2" 0 0 2 991 3 4 2 3
"2238" 2238 5 "a2" 0 0 2 664 3 4 2 3
"2239" 2239 5 "a2" 0 0 2 1000 3 4 2 3
"2240" 2240 5 "a2" 0 0 2 865 3 4 2 3
"2241" 2241 5 "a2" 1 0 2 550 3 2 2 3
"2242" 2242 5 "a2" 1 0 2 2120 3 2 2 3
"2243" 2243 5 "a2" 0 0 2 939 3 4 2 3
"2244" 2244 5 "a2" 0 1 1 1394 3 3 6 3
"2245" 2245 5 "a2" 0 0 2 1950 3 4 2 3
"2246" 2246 5 "a2" 1 1 1 1904 3 1 6 3
"2247" 2247 5 "a2" 0 0 2 828 3 4 2 3
"2248" 2248 5 "a2" 1 1 1 802 3 1 6 3
"2249" 2249 5 "a2" 1 0 2 834 3 2 2 3
"2250" 2250 5 "a2" 1 1 1 1106 3 1 6 3
"2251" 2251 5 "a2" 1 1 1 757 3 1 6 3
"2252" 2252 5 "a2" 1 1 1 578 3 1 6 3
"2253" 2253 5 "a2" 0 0 2 1052 3 4 2 3
"2254" 2254 5 "a2" 1 1 1 1125 3 1 6 3
"2255" 2255 5 "a2" 1 1 1 1065 3 1 6 3
"2256" 2256 5 "a2" 1 0 2 910 3 2 2 3
"2257" 2257 5 "a2" 1 1 1 814 3 1 6 3
"2258" 2258 5 "a2" 0 1 2 505 3 3 5 3
"2259" 2259 5 "a2" 1 1 1 823 3 1 6 3
"2260" 2260 5 "a2" 0 0 2 904 3 4 2 3
"2261" 2261 5 "a2" 1 1 1 678 3 1 6 3
"2262" 2262 5 "a2" 1 1 2 1027 3 1 5 3
"2263" 2263 5 "a2" 0 0 2 1623 3 4 2 3
"2264" 2264 5 "a2" 0 0 2 2178 3 4 2 3
"2265" 2265 5 "a2" 0 0 2 980 3 4 2 3
"2266" 2266 5 "a2" 0 1 1 890 3 3 6 3
"2267" 2267 5 "a2" 1 1 1 934 3 1 6 3
"2268" 2268 5 "a2" 1 1 1 1625 3 1 6 3
"2269" 2269 5 "a2" 1 1 2 1125 3 1 5 3
"2270" 2270 5 "a2" 1 0 2 1027 3 2 2 3
"2271" 2271 5 "a2" 0 0 2 1106 3 4 2 3
"2272" 2272 5 "a2" 0 0 2 897 3 4 2 3
"2273" 2273 5 "a2" 1 0 1 817 3 2 1 3
"2274" 2274 5 "a2" 1 1 1 3854 3 1 6 3
"2275" 2275 5 "a2" 0 0 2 1605 3 4 2 3
"2276" 2276 5 "a2" 0 0 2 975 3 4 2 3
"2277" 2277 5 "a2" 1 1 1 742 3 1 6 3
"2278" 2278 5 "a2" 1 1 1 764 3 1 6 3
"2279" 2279 5 "a2" 1 1 1 898 3 1 6 3
"2280" 2280 5 "a2" 0 0 2 1363 3 4 2 3
"2281" 2281 5 "a2" 0 0 2 794 3 4 2 3
"2282" 2282 5 "a2" 0 0 1 875 3 4 1 3
"2283" 2283 5 "a2" 0 1 2 1228 3 3 5 3
"2284" 2284 5 "a2" 1 1 2 1124 3 1 5 3
"2285" 2285 5 "a2" 1 1 1 980 3 1 6 3
"2286" 2286 5 "a2" 1 1 1 1137 3 1 6 3
"2287" 2287 5 "a2" 1 0 2 1075 3 2 2 3
"2288" 2288 5 "a2" 1 1 1 935 3 1 6 3
"2289" 2289 5 "a2" 0 0 1 859 3 4 1 3
"2290" 2290 5 "a2" 1 1 1 980 3 1 6 3
"2291" 2291 5 "a2" 0 0 2 1278 3 4 2 3
"2292" 2292 5 "a2" 1 0 2 1428 3 2 2 3
"2293" 2293 5 "a2" 0 0 2 877 3 4 2 3
"2294" 2294 5 "a2" 0 0 1 1207 3 4 1 3
"2295" 2295 5 "a2" 1 1 1 1581 3 1 6 3
"2296" 2296 5 "a2" 0 0 2 1407 3 4 2 3
"2297" 2297 5 "a2" 1 1 2 1292 3 1 5 3
"2298" 2298 5 "a2" 1 0 2 977 3 2 2 3
"2299" 2299 5 "a2" 0 1 2 903 3 3 5 3
"2300" 2300 5 "a2" 1 1 1 996 3 1 6 3
"2301" 2301 5 "a2" 0 0 2 943 4 4 2 45
"2302" 2302 5 "a2" 1 1 2 1262 4 1 5 45
"2303" 2303 5 "a2" 1 1 1 1034 4 1 6 45
"2304" 2304 5 "a2" 0 0 2 1162 4 4 2 45
"2305" 2305 5 "a2" 1 0 2 954 4 2 2 45
"2306" 2306 5 "a2" 0 0 2 754 4 4 2 45
"2307" 2307 5 "a2" 0 0 2 565 4 4 2 45
"2308" 2308 5 "a2" 1 0 2 931 4 2 2 45
"2309" 2309 5 "a2" 1 0 2 692 4 2 2 45
"2310" 2310 5 "a2" 0 0 2 733 4 4 2 45
"2311" 2311 5 "a2" 0 1 2 1740 4 3 5 45
"2312" 2312 5 "a2" 1 1 1 951 4 1 6 45
"2313" 2313 5 "a2" 1 0 2 1077 4 2 2 45
"2314" 2314 5 "a2" 0 1 2 810 4 3 5 45
"2315" 2315 5 "a2" 0 0 2 1013 4 4 2 45
"2316" 2316 5 "a2" 0 0 2 998 4 4 2 45
"2317" 2317 5 "a2" 0 0 2 763 4 4 2 45
"2318" 2318 5 "a2" 1 0 2 587 4 2 2 45
"2319" 2319 5 "a2" 0 0 2 742 4 4 2 45
"2320" 2320 5 "a2" 0 0 2 617 4 4 2 45
"2321" 2321 5 "a2" 0 0 2 610 4 4 2 45
"2322" 2322 5 "a2" 0 0 1 485 4 4 1 45
"2323" 2323 5 "a2" 0 0 1 666 4 4 1 45
"2324" 2324 5 "a2" 0 0 1 810 4 4 1 45
"2325" 2325 5 "a2" 1 1 2 4127 4 1 5 45
"2326" 2326 5 "a2" 0 0 2 1740 4 4 2 45
"2327" 2327 5 "a2" 0 0 1 782 4 4 1 45
"2328" 2328 5 "a2" 0 0 1 676 4 4 1 45
"2329" 2329 5 "a2" 0 0 2 692 4 4 2 45
"2330" 2330 5 "a2" 0 0 1 570 4 4 1 45
"2331" 2331 5 "a2" 0 0 2 731 4 4 2 45
"2332" 2332 5 "a2" 0 0 1 568 4 4 1 45
"2333" 2333 5 "a2" 0 0 1 407 4 4 1 45
"2334" 2334 5 "a2" 1 0 1 327 4 2 1 45
"2335" 2335 5 "a2" 0 0 1 1451 4 4 1 45
"2336" 2336 5 "a2" 1 0 2 873 4 2 2 45
"2337" 2337 5 "a2" 1 1 1 988 4 1 6 45
"2338" 2338 5 "a2" 1 0 2 753 4 2 2 45
"2339" 2339 5 "a2" 0 0 2 973 4 4 2 45
"2340" 2340 5 "a2" 0 0 2 740 4 4 2 45
"2341" 2341 5 "a2" 1 0 2 1545 4 2 2 45
"2342" 2342 5 "a2" 1 1 1 1372 4 1 6 45
"2343" 2343 5 "a2" 0 0 2 743 4 4 2 45
"2344" 2344 5 "a2" 0 0 2 758 4 4 2 45
"2345" 2345 5 "a2" 0 0 2 592 4 4 2 45
"2346" 2346 5 "a2" 0 0 2 377 4 4 2 45
"2347" 2347 5 "a2" 0 0 2 952 4 4 2 45
"2348" 2348 5 "a2" 0 0 2 540 4 4 2 45
"2349" 2349 5 "a2" 0 0 2 570 4 4 2 45
"2350" 2350 5 "a2" 1 0 3 384 4 2 3 45
"2351" 2351 5 "a2" 0 0 2 1684 4 4 2 45
"2352" 2352 5 "a2" 0 0 2 1103 4 4 2 45
"2353" 2353 5 "a2" 0 0 2 1093 4 4 2 45
"2354" 2354 5 "a2" 1 1 1 1195 4 1 6 45
"2355" 2355 5 "a2" 0 0 2 2081 4 4 2 45
"2356" 2356 5 "a2" 0 0 2 1559 4 4 2 45
"2357" 2357 5 "a2" 1 1 2 1808 4 1 5 45
"2358" 2358 5 "a2" 0 1 2 4175 4 3 5 45
"2359" 2359 5 "a2" 1 0 2 1382 4 2 2 45
"2360" 2360 5 "a2" 0 1 2 2020 4 3 5 45
"2361" 2361 5 "a2" 0 0 2 960 4 4 2 45
"2362" 2362 5 "a2" 0 0 2 603 4 4 2 45
"2363" 2363 5 "a2" 0 0 2 601 4 4 2 45
"2364" 2364 5 "a2" 0 0 2 464 4 4 2 45
"2365" 2365 5 "a2" 0 0 2 412 4 4 2 45
"2366" 2366 5 "a2" 1 0 2 426 4 2 2 45
"2367" 2367 5 "a2" 1 0 2 1205 4 2 2 45
"2368" 2368 5 "a2" 0 0 2 708 4 4 2 45
"2369" 2369 5 "a2" 0 1 2 3104 4 3 5 45
"2370" 2370 5 "a2" 0 0 2 1191 4 4 2 45
"2371" 2371 5 "a2" 1 1 2 2399 4 1 5 45
"2372" 2372 5 "a2" 1 0 2 819 4 2 2 45
"2373" 2373 5 "a2" 1 1 2 673 4 1 5 45
"2374" 2374 5 "a2" 0 0 2 703 4 4 2 45
"2375" 2375 5 "a2" 1 1 2 704 4 1 5 45
"2376" 2376 5 "a2" 1 0 2 1748 4 2 2 45
"2377" 2377 5 "a2" 1 0 2 847 4 2 2 45
"2378" 2378 5 "a2" 0 1 2 759 4 3 5 45
"2379" 2379 5 "a2" 0 0 2 528 4 4 2 45
"2380" 2380 5 "a2" 1 0 2 916 4 2 2 45
"2381" 2381 5 "a2" 1 0 2 1472 4 2 2 45
"2382" 2382 5 "a2" 0 0 2 863 4 4 2 45
"2383" 2383 5 "a2" 0 1 2 1187 4 3 5 45
"2384" 2384 5 "a2" 1 1 2 876 4 1 5 45
"2385" 2385 5 "a2" 0 0 2 708 4 4 2 45
"2386" 2386 5 "a2" 1 0 2 760 4 2 2 45
"2387" 2387 5 "a2" 0 0 2 732 4 4 2 45
"2388" 2388 5 "a2" 1 0 2 638 4 2 2 45
"2389" 2389 5 "a2" 0 0 2 762 4 4 2 45
"2390" 2390 5 "a2" 0 0 2 644 4 4 2 45
"2391" 2391 5 "a2" 1 0 2 636 4 2 2 45
"2392" 2392 5 "a2" 0 1 2 1796 4 3 5 45
"2393" 2393 5 "a2" 0 0 2 1510 4 4 2 45
"2394" 2394 5 "a2" 0 0 2 717 4 4 2 45
"2395" 2395 5 "a2" 0 1 2 1201 4 3 5 45
"2396" 2396 5 "a2" 0 0 2 699 4 4 2 45
"2397" 2397 5 "a2" 0 0 2 608 4 4 2 45
"2398" 2398 5 "a2" 0 0 2 435 4 4 2 45
"2399" 2399 5 "a2" 1 0 2 914 4 2 2 45
"2400" 2400 5 "a2" 1 0 2 680 4 2 2 45
"2401" 2401 5 "a2" 0 0 2 1305 5 4 2 45
"2402" 2402 5 "a2" 1 0 2 506 5 2 2 45
"2403" 2403 5 "a2" 1 0 2 611 5 2 2 45
"2404" 2404 5 "a2" 0 0 2 1003 5 4 2 45
"2405" 2405 5 "a2" 0 0 1 3285 5 4 1 45
"2406" 2406 5 "a2" 0 0 1 635 5 4 1 45
"2407" 2407 5 "a2" 0 0 1 570 5 4 1 45
"2408" 2408 5 "a2" 0 0 2 974 5 4 2 45
"2409" 2409 5 "a2" 1 0 3 1623 5 2 3 45
"2410" 2410 5 "a2" 0 0 1 1973 5 4 1 45
"2411" 2411 5 "a2" 0 0 1 754 5 4 1 45
"2412" 2412 5 "a2" 0 0 1 612 5 4 1 45
"2413" 2413 5 "a2" 0 0 2 1628 5 4 2 45
"2414" 2414 5 "a2" 0 1 2 1658 5 3 5 45
"2415" 2415 5 "a2" 0 0 2 1177 5 4 2 45
"2416" 2416 5 "a2" 0 0 1 733 5 4 1 45
"2417" 2417 5 "a2" 1 0 1 579 5 2 1 45
"2418" 2418 5 "a2" 0 0 1 452 5 4 1 45
"2419" 2419 5 "a2" 0 1 1 1710 5 3 6 45
"2420" 2420 5 "a2" 0 0 1 556 5 4 1 45
"2421" 2421 5 "a2" 0 0 2 570 5 4 2 45
"2422" 2422 5 "a2" 0 0 2 507 5 4 2 45
"2423" 2423 5 "a2" 0 0 2 289 5 4 2 45
"2424" 2424 5 "a2" 0 0 2 623 5 4 2 45
"2425" 2425 5 "a2" 0 0 1 679 5 4 1 45
"2426" 2426 5 "a2" 1 0 1 779 5 2 1 45
"2427" 2427 5 "a2" 1 0 2 1396 5 2 2 45
"2428" 2428 5 "a2" 0 0 2 884 5 4 2 45
"2429" 2429 5 "a2" 0 0 2 739 5 4 2 45
"2430" 2430 5 "a2" 0 0 2 789 5 4 2 45
"2431" 2431 5 "a2" 0 0 2 601 5 4 2 45
"2432" 2432 5 "a2" 0 0 2 1425 5 4 2 45
"2433" 2433 5 "a2" 1 0 2 696 5 2 2 45
"2434" 2434 5 "a2" 1 0 1 2624 5 2 1 45
"2435" 2435 5 "a2" 0 0 2 4568 5 4 2 45
"2436" 2436 5 "a2" 1 0 2 1751 5 2 2 45
"2437" 2437 5 "a2" 0 0 2 803 5 4 2 45
"2438" 2438 5 "a2" 0 1 1 2123 5 3 6 45
"2439" 2439 5 "a2" 0 0 2 1628 5 4 2 45
"2440" 2440 5 "a2" 0 0 2 1623 5 4 2 45
"2441" 2441 5 "a2" 0 0 2 739 5 4 2 45
"2442" 2442 5 "a2" 1 0 1 526 5 2 1 45
"2443" 2443 5 "a2" 0 0 1 449 5 4 1 45
"2444" 2444 5 "a2" 0 0 1 947 5 4 1 45
"2445" 2445 5 "a2" 0 0 1 830 5 4 1 45
"2446" 2446 5 "a2" 0 0 1 688 5 4 1 45
"2447" 2447 5 "a2" 0 0 1 555 5 4 1 45
"2448" 2448 5 "a2" 0 0 1 799 5 4 1 45
"2449" 2449 5 "a2" 0 0 1 804 5 4 1 45
"2450" 2450 5 "a2" 0 0 1 902 5 4 1 45
"2451" 2451 5 "a2" 0 0 1 364 5 4 1 45
"2452" 2452 5 "a2" 0 0 1 334 5 4 1 45
"2453" 2453 5 "a2" 0 0 2 1074 5 4 2 45
"2454" 2454 5 "a2" 0 0 2 627 5 4 2 45
"2455" 2455 5 "a2" 0 0 2 547 5 4 2 45
"2456" 2456 5 "a2" 1 0 2 284 5 2 2 45
"2457" 2457 5 "a2" 0 0 1 567 5 4 1 45
"2458" 2458 5 "a2" 0 0 1 1052 5 4 1 45
"2459" 2459 5 "a2" 0 0 1 678 5 4 1 45
"2460" 2460 5 "a2" 0 0 2 750 5 4 2 45
"2461" 2461 5 "a2" 0 0 2 363 5 4 2 45
"2462" 2462 5 "a2" 1 1 1 1660 5 1 6 45
"2463" 2463 5 "a2" 1 1 1 868 5 1 6 45
"2464" 2464 5 "a2" 0 1 2 1497 5 3 5 45
"2465" 2465 5 "a2" 1 1 2 1184 5 1 5 45
"2466" 2466 5 "a2" 0 0 1 777 5 4 1 45
"2467" 2467 5 "a2" 0 1 2 1326 5 3 5 45
"2468" 2468 5 "a2" 0 0 1 790 5 4 1 45
"2469" 2469 5 "a2" 0 0 2 856 5 4 2 45
"2470" 2470 5 "a2" 0 0 2 1040 5 4 2 45
"2471" 2471 5 "a2" 0 0 2 949 5 4 2 45
"2472" 2472 5 "a2" 0 0 2 631 5 4 2 45
"2473" 2473 5 "a2" 0 0 2 425 5 4 2 45
"2474" 2474 5 "a2" 0 0 2 505 5 4 2 45
"2475" 2475 5 "a2" 0 0 1 601 5 4 1 45
"2476" 2476 5 "a2" 0 0 1 379 5 4 1 45
"2477" 2477 5 "a2" 0 0 1 351 5 4 1 45
"2478" 2478 5 "a2" 0 0 1 371 5 4 1 45
"2479" 2479 5 "a2" 0 0 1 308 5 4 1 45
"2480" 2480 5 "a2" 0 0 1 368 5 4 1 45
"2481" 2481 5 "a2" 0 0 1 291 5 4 1 45
"2482" 2482 5 "a2" 0 0 1 259 5 4 1 45
"2483" 2483 5 "a2" 0 0 1 315 5 4 1 45
"2484" 2484 5 "a2" 0 0 1 299 5 4 1 45
"2485" 2485 5 "a2" 0 0 1 306 5 4 1 45
"2486" 2486 5 "a2" 0 0 1 258 5 4 1 45
"2487" 2487 5 "a2" 0 0 1 156 5 4 1 45
"2488" 2488 5 "a2" 0 0 1 321 5 4 1 45
"2489" 2489 5 "a2" 0 0 1 167 5 4 1 45
"2490" 2490 5 "a2" 0 0 1 407 5 4 1 45
"2491" 2491 5 "a2" 0 0 1 219 5 4 1 45
"2492" 2492 5 "a2" 0 1 2 2061 5 3 5 45
"2493" 2493 5 "a2" 0 0 1 838 5 4 1 45
"2494" 2494 5 "a2" 1 0 2 437 5 2 2 45
"2495" 2495 5 "a2" 0 0 2 559 5 4 2 45
"2496" 2496 5 "a2" 0 0 2 361 5 4 2 45
"2497" 2497 5 "a2" 0 0 2 159 5 4 2 45
"2498" 2498 5 "a2" 0 0 2 97 5 4 2 45
"2499" 2499 5 "a2" 0 0 2 175 5 4 2 45
"2500" 2500 5 "a2" 0 0 2 393 5 4 2 45
"2501" 2501 6 "b1" 0 0 1 1130 5 4 1 45
"2502" 2502 6 "b1" 0 0 1 1835 5 4 1 45
"2503" 2503 6 "b1" 0 0 1 1464 5 4 1 45
"2504" 2504 6 "b1" 0 1 2 1810 5 3 5 45
"2505" 2505 6 "b1" 0 0 1 2451 5 4 1 45
"2506" 2506 6 "b1" 0 1 2 3395 5 3 5 45
"2507" 2507 6 "b1" 0 0 2 1333 5 4 2 45
"2508" 2508 6 "b1" 0 1 2 2015 5 3 5 45
"2509" 2509 6 "b1" 0 0 1 7171 5 4 1 45
"2510" 2510 6 "b1" 0 1 2 1969 5 3 5 45
"2511" 2511 6 "b1" 0 0 1 1993 5 4 1 45
"2512" 2512 6 "b1" 0 1 1 1680 5 3 6 45
"2513" 2513 6 "b1" 0 0 2 1657 5 4 2 45
"2514" 2514 6 "b1" 0 0 2 3878 5 4 2 45
"2515" 2515 6 "b1" 0 0 1 1330 5 4 1 45
"2516" 2516 6 "b1" 0 0 2 2177 5 4 2 45
"2517" 2517 6 "b1" 0 0 1 1267 5 4 1 45
"2518" 2518 6 "b1" 0 0 2 2056 5 4 2 45
"2519" 2519 6 "b1" 0 0 2 2104 5 4 2 45
"2520" 2520 6 "b1" 0 1 2 2725 5 3 5 45
"2521" 2521 6 "b1" 0 0 1 1088 5 4 1 45
"2522" 2522 6 "b1" 0 0 1 2719 5 4 1 45
"2523" 2523 6 "b1" 0 0 1 1836 5 4 1 45
"2524" 2524 6 "b1" 0 0 2 1653 5 4 2 45
"2525" 2525 6 "b1" 0 0 2 1221 5 4 2 45
"2526" 2526 6 "b1" 0 0 1 2971 5 4 1 45
"2527" 2527 6 "b1" 1 0 1 1182 5 2 1 45
"2528" 2528 6 "b1" 1 1 2 3997 5 1 5 45
"2529" 2529 6 "b1" 0 0 1 1189 5 4 1 45
"2530" 2530 6 "b1" 1 0 2 2284 5 2 2 45
"2531" 2531 6 "b1" 0 0 1 1208 5 4 1 45
"2532" 2532 6 "b1" 0 0 2 2600 5 4 2 45
"2533" 2533 6 "b1" 0 0 1 1025 5 4 1 45
"2534" 2534 6 "b1" 0 0 1 1735 5 4 1 45
"2535" 2535 6 "b1" 0 0 1 1738 5 4 1 45
"2536" 2536 6 "b1" 1 1 1 2594 5 1 6 45
"2537" 2537 6 "b1" 1 1 2 4202 5 1 5 45
"2538" 2538 6 "b1" 0 0 1 1145 5 4 1 45
"2539" 2539 6 "b1" 0 0 2 2784 5 4 2 45
"2540" 2540 6 "b1" 0 1 2 4176 5 3 5 45
"2541" 2541 6 "b1" 0 0 1 2510 5 4 1 45
"2542" 2542 6 "b1" 0 0 2 1749 5 4 2 45
"2543" 2543 6 "b1" 0 0 2 2942 5 4 2 45
"2544" 2544 6 "b1" 0 0 1 955 5 4 1 45
"2545" 2545 6 "b1" 0 0 2 1298 5 4 2 45
"2546" 2546 6 "b1" 0 0 1 1355 5 4 1 45
"2547" 2547 6 "b1" 0 0 1 1305 5 4 1 45
"2548" 2548 6 "b1" 0 0 2 1086 5 4 2 45
"2549" 2549 6 "b1" 0 0 1 1693 5 4 1 45
"2550" 2550 6 "b1" 0 0 2 1214 5 4 2 45
"2551" 2551 6 "b1" 1 1 1 1947 5 1 6 45
"2552" 2552 6 "b1" 1 0 1 1302 5 2 1 45
"2553" 2553 6 "b1" 0 0 2 2866 5 4 2 45
"2554" 2554 6 "b1" 0 0 2 1425 5 4 2 45
"2555" 2555 6 "b1" 0 1 2 5044 5 3 5 45
"2556" 2556 6 "b1" 0 1 2 3761 5 3 5 45
"2557" 2557 6 "b1" 0 0 1 952 5 4 1 45
"2558" 2558 6 "b1" 0 0 2 1406 5 4 2 45
"2559" 2559 6 "b1" 1 0 2 1132 5 2 2 45
"2560" 2560 6 "b1" 0 1 2 1869 5 3 5 45
"2561" 2561 6 "b1" 0 0 1 1588 5 4 1 45
"2562" 2562 6 "b1" 0 0 2 1148 5 4 2 45
"2563" 2563 6 "b1" 0 0 1 2889 5 4 1 45
"2564" 2564 6 "b1" 1 1 1 2937 5 1 6 45
"2565" 2565 6 "b1" 0 0 1 1102 5 4 1 45
"2566" 2566 6 "b1" 0 0 2 2149 5 4 2 45
"2567" 2567 6 "b1" 0 0 2 3428 5 4 2 45
"2568" 2568 6 "b1" 0 0 1 1115 5 4 1 45
"2569" 2569 6 "b1" 0 0 2 1473 5 4 2 45
"2570" 2570 6 "b1" 0 0 1 1336 5 4 1 45
"2571" 2571 6 "b1" 0 0 2 985 5 4 2 45
"2572" 2572 6 "b1" 0 1 2 2407 5 3 5 45
"2573" 2573 6 "b1" 0 0 2 1064 5 4 2 45
"2574" 2574 6 "b1" 0 0 1 1054 5 4 1 45
"2575" 2575 6 "b1" 0 0 1 800 5 4 1 45
"2576" 2576 6 "b1" 0 0 1 937 5 4 1 45
"2577" 2577 6 "b1" 1 1 2 1266 5 1 5 45
"2578" 2578 6 "b1" 0 0 2 2539 5 4 2 45
"2579" 2579 6 "b1" 0 0 1 1492 5 4 1 45
"2580" 2580 6 "b1" 0 0 2 1381 5 4 2 45
"2581" 2581 6 "b1" 0 0 1 858 5 4 1 45
"2582" 2582 6 "b1" 0 0 1 1790 5 4 1 45
"2583" 2583 6 "b1" 0 0 1 849 5 4 1 45
"2584" 2584 6 "b1" 0 0 1 828 5 4 1 45
"2585" 2585 6 "b1" 1 0 1 1396 5 2 1 45
"2586" 2586 6 "b1" 0 0 2 2310 5 4 2 45
"2587" 2587 6 "b1" 1 1 1 1553 5 1 6 45
"2588" 2588 6 "b1" 0 1 2 2431 5 3 5 45
"2589" 2589 6 "b1" 0 0 1 1352 5 4 1 45
"2590" 2590 6 "b1" 0 0 1 1100 5 4 1 45
"2591" 2591 6 "b1" 0 0 1 1359 5 4 1 45
"2592" 2592 6 "b1" 1 0 2 1069 5 2 2 45
"2593" 2593 6 "b1" 0 1 2 2511 5 3 5 45
"2594" 2594 6 "b1" 0 0 2 2935 5 4 2 45
"2595" 2595 6 "b1" 0 0 1 1114 5 4 1 45
"2596" 2596 6 "b1" 0 0 1 2521 5 4 1 45
"2597" 2597 6 "b1" 1 0 1 733 5 2 1 45
"2598" 2598 6 "b1" 1 1 2 2151 5 1 5 45
"2599" 2599 6 "b1" 0 1 2 3506 5 3 5 45
"2600" 2600 6 "b1" 0 0 2 1607 5 4 2 45
"2601" 2601 6 "b1" 1 0 2 3020 4 2 2 45
"2602" 2602 6 "b1" 0 1 1 1785 4 3 6 45
"2603" 2603 6 "b1" 1 1 2 2701 4 1 5 45
"2604" 2604 6 "b1" 0 1 2 3090 4 3 5 45
"2605" 2605 6 "b1" 0 0 2 1167 4 4 2 45
"2606" 2606 6 "b1" 1 0 2 1902 4 2 2 45
"2607" 2607 6 "b1" 0 0 2 1237 4 4 2 45
"2608" 2608 6 "b1" 1 1 3 3707 4 1 4 45
"2609" 2609 6 "b1" 0 1 3 2679 4 3 4 45
"2610" 2610 6 "b1" 0 0 2 1917 4 4 2 45
"2611" 2611 6 "b1" 1 1 2 2157 4 1 5 45
"2612" 2612 6 "b1" 0 1 2 3268 4 3 5 45
"2613" 2613 6 "b1" 0 0 1 863 4 4 1 45
"2614" 2614 6 "b1" 0 0 1 1953 4 4 1 45
"2615" 2615 6 "b1" 0 1 2 1476 4 3 5 45
"2616" 2616 6 "b1" 0 0 1 2578 4 4 1 45
"2617" 2617 6 "b1" 0 0 1 2186 4 4 1 45
"2618" 2618 6 "b1" 0 0 1 937 4 4 1 45
"2619" 2619 6 "b1" 0 0 1 859 4 4 1 45
"2620" 2620 6 "b1" 0 0 1 755 4 4 1 45
"2621" 2621 6 "b1" 1 1 2 1336 4 1 5 45
"2622" 2622 6 "b1" 0 0 1 1188 4 4 1 45
"2623" 2623 6 "b1" 0 0 1 1540 4 4 1 45
"2624" 2624 6 "b1" 1 1 2 2257 4 1 5 45
"2625" 2625 6 "b1" 0 0 1 885 4 4 1 45
"2626" 2626 6 "b1" 1 0 1 1153 4 2 1 45
"2627" 2627 6 "b1" 0 1 2 1103 4 3 5 45
"2628" 2628 6 "b1" 0 0 1 2116 4 4 1 45
"2629" 2629 6 "b1" 1 0 1 1721 4 2 1 45
"2630" 2630 6 "b1" 1 0 2 1815 4 2 2 45
"2631" 2631 6 "b1" 0 0 1 1741 4 4 1 45
"2632" 2632 6 "b1" 1 0 2 1250 4 2 2 45
"2633" 2633 6 "b1" 0 0 2 1356 4 4 2 45
"2634" 2634 6 "b1" 0 1 3 1447 4 3 4 45
"2635" 2635 6 "b1" 0 0 1 2988 4 4 1 45
"2636" 2636 6 "b1" 0 0 2 2220 4 4 2 45
"2637" 2637 6 "b1" 0 0 2 1387 4 4 2 45
"2638" 2638 6 "b1" 0 1 3 1783 4 3 4 45
"2639" 2639 6 "b1" 1 1 1 1391 4 1 6 45
"2640" 2640 6 "b1" 0 0 2 2768 4 4 2 45
"2641" 2641 6 "b1" 1 1 2 1037 4 1 5 45
"2642" 2642 6 "b1" 0 0 2 1882 4 4 2 45
"2643" 2643 6 "b1" 0 0 1 1768 4 4 1 45
"2644" 2644 6 "b1" 0 0 1 911 4 4 1 45
"2645" 2645 6 "b1" 1 1 2 2038 4 1 5 45
"2646" 2646 6 "b1" 0 0 1 966 4 4 1 45
"2647" 2647 6 "b1" 0 0 2 2462 4 4 2 45
"2648" 2648 6 "b1" 1 1 2 1649 4 1 5 45
"2649" 2649 6 "b1" 0 0 1 1040 4 4 1 45
"2650" 2650 6 "b1" 0 1 2 1927 4 3 5 45
"2651" 2651 6 "b1" 0 0 2 1202 4 4 2 45
"2652" 2652 6 "b1" 0 1 2 1237 4 3 5 45
"2653" 2653 6 "b1" 0 0 1 1003 4 4 1 45
"2654" 2654 6 "b1" 1 1 1 1387 4 1 6 45
"2655" 2655 6 "b1" 0 0 1 1143 4 4 1 45
"2656" 2656 6 "b1" 0 0 2 1958 4 4 2 45
"2657" 2657 6 "b1" 1 1 1 1085 4 1 6 45
"2658" 2658 6 "b1" 1 0 1 1759 4 2 1 45
